overlapRound	Item1	Item2	sn	cond	sess	trial	trial_type	title	typeOfScen	keybResp	keyDef	keybRT	rtBeep	rtDeadline	averageP	sdp	overlap	direct.xVy	correct	targetPresent	dirOverlap	correct01	overlapRoundSN	res.RT	fit.RT
0.05	a pedophile	a father	54	elaborate	1	93	1	burntHouse	simpleChoice	k	Right Item	6.95463886488099	N/A	-1	0.967479838709677	0.010670087262182	0.0650403225806451	-1	1	FALSE	-0.934959677419355	1	0.05	-0.0403447251084854	6.99498358998947
0.05	a judge	a pedophile	54	elaborate	1	59	1	counseling	simpleChoice	k	Right Item	7.61775957660851	N/A	-1	0.952471774193548	0.0183049591011055	0.0950564516129031	1	0	TRUE	0.904943548387097	0	0.05	0.56919814443623	7.04856143217228
0.05	a pedophile	an adult	54	elaborate	1	50	1	surgery	simpleChoice	k	Right Item	7.39079852173568	N/A	-1	0.0393943089430894	0.0172001772453226	0.0787886178861789	-1	1	FALSE	-0.921211382113821	1	0.05	0.327986155991694	7.06281236574398
0.05	a rapist	a mother	54	elaborate	1	32	1	burntHouse	simpleChoice	k	Right Item	6.83410873881384	N/A	-1	0.970038	0.0103945467723515	0.0599240000000001	-1	1	FALSE	-0.940076	1	0.05	-0.25729199086284	7.09140072967668
0.05	a soldier	a rapist	54	elaborate	1	9	1	surgery	simpleChoice	d	Left Item	6.85751406254539	N/A	-1	0.0390866141732283	0.0170966232493728	0.0781732283464567	1	1	TRUE	0.921826771653543	1	0.05	-0.270584704604153	7.12809876714954
0.05	a rapist	a father	54	elaborate	1	81	1	surgery	simpleChoice	k	Right Item	7.20563517641036	N/A	-1	0.961657370517928	0.0116384162759155	0.0766852589641434	-1	1	FALSE	-0.923314741035857	1	0.05	0.191788423442648	7.01384675296772
0.05	a father	a pedophile	54	elaborate	1	34	1	hearingAids	simpleChoice	d	Left Item	6.98007594056176	N/A	-1	0.967479838709677	0.010670087262182	0.0650403225806451	1	1	TRUE	0.934959677419355	1	0.05	-0.108142598312798	7.08821853887456
0.05	a rapist	a mother	54	elaborate	1	35	1	paralysis	simpleChoice	k	Right Item	6.880384082186	N/A	-1	0.970038	0.0103945467723515	0.0599240000000001	-1	1	FALSE	-0.940076	1	0.05	-0.206243896817932	7.08662797900394
0.05	a teacher	a pedophile	54	elaborate	1	77	1	legalFees	simpleChoice	d	Left Item	6.54678541076052	N/A	-1	0.037125	0.0115989117000102	0.07425	1	1	TRUE	0.92575	1	0.05	-0.473360360372935	7.02014577113346
0.05	an elderly person	a pedophile	54	elaborate	1	4	1	bucketList	simpleChoice	d	Left Item	7.1770187659099	N/A	-1	0.0386942148760331	0.0167188846207552	0.0773884297520662	1	1	TRUE	0.922611570247934	1	0.05	0.040917068170585	7.13610169773932
0.05	an olympian	a pedophile	54	elaborate	1	84	1	surgery	simpleChoice	d	Left Item	6.92165818415113	N/A	-1	0.0459279661016949	0.0186249899499458	0.0918559322033898	1	1	TRUE	0.90814406779661	1	0.05	-0.0874680145728188	7.00912619872395
0.15	a mother	a thief	54	elaborate	1	94	1	physicalTherapy	simpleChoice	d	Left Item	6.84587987526405	N/A	-1	0.944625514403292	0.013986391556072	0.110748971193416	1	1	TRUE	0.889251028806584	1	0.15	-0.147534076298943	6.99341395156299
0.15	a terrorist	a judge	54	elaborate	1	83	1	counseling	simpleChoice	k	Right Item	7.02908756414966	N/A	-1	0.938693277310924	0.02206874779007	0.122613445378151	-1	1	FALSE	-0.877386554621849	1	0.15	0.0183882004602518	7.01069936368941
0.15	a pedophile	a celebrity	54	elaborate	1	39	1	hearingAids	simpleChoice	k	Right Item	7.13169851046691	N/A	-1	0.906931623931624	0.0253602619704029	0.186136752136752	-1	1	FALSE	-0.813863247863248	1	0.15	0.0514292026115371	7.08026930785537
0.15	an adult	a rapist	54	elaborate	1	7	1	surgery	simpleChoice	d	Left Item	6.92362862813843	N/A	-1	0.050872	0.019218974608053	0.101744	1	1	TRUE	0.898256	1	0.15	-0.207670233676511	7.13129886181494
0.15	an assassin	a teacher	54	elaborate	1	90	1	counseling	simpleChoice	k	Right Item	6.77308037565554	N/A	-1	0.91070564516129	0.0181737180255683	0.178588709677419	-1	1	FALSE	-0.821411290322581	1	0.15	-0.226614243716861	6.9996946193724
0.15	a teacher	an assassin	54	elaborate	1	23	1	paralysis	simpleChoice	d	Left Item	6.79234442747081	N/A	-1	0.91070564516129	0.0181737180255683	0.178588709677419	1	1	TRUE	0.821411290322581	1	0.15	-0.313393849193501	7.10573827666431
0.15	an assassin	an elderly person	54	elaborate	1	68	1	surgery	simpleChoice	k	Right Item	6.87212810133899	N/A	-1	0.0856393442622951	0.0251843995334413	0.17127868852459	-1	1	FALSE	-0.82872131147541	1	0.15	-0.162211151969641	7.03433925330863
0.15	a gang member	a mother	54	elaborate	1	61	1	hearingAids	simpleChoice	k	Right Item	7.17395831975679	N/A	-1	0.0853477366255144	0.0167997810245133	0.170695473251029	-1	1	FALSE	-0.829304526748971	1	0.15	0.128559854706621	7.04539846505017
0.15	an assassin	a mentor	54	elaborate	1	51	1	physicalTherapy	simpleChoice	k	Right Item	7.05272104923232	N/A	-1	0.911748031496063	0.0239452741424966	0.176503937007874	-1	1	FALSE	-0.823496062992126	1	0.15	-0.00850645765592706	7.06122750688825
0.25	a rapist	a celebrity	54	elaborate	1	38	1	bucketList	simpleChoice	k	Right Item	6.67456139181443	N/A	-1	0.891172268907563	0.0272355832867098	0.217655462184874	-1	1	FALSE	-0.782344537815126	1	0.25	-0.407297048738142	7.08185844055257
0.25	an assassin	a judge	54	elaborate	1	95	1	legalFees	simpleChoice	k	Right Item	7.04141166379481	N/A	-1	0.876153225806452	0.0283113627016414	0.247693548387097	-1	1	FALSE	-0.752306451612903	1	0.25	0.0495669984394898	6.99184466535532
0.25	an addict	a father	54	elaborate	1	20	1	paralysis	simpleChoice	k	Right Item	7.10249935577465	N/A	-1	0.855566115702479	0.0217853597292144	0.288867768595041	-1	1	FALSE	-0.711132231404959	1	0.25	-0.00802454209635517	7.110523897871
0.25	a gang member	a mentor	54	elaborate	1	47	1	surgery	simpleChoice	k	Right Item	7.1777824161952	N/A	-1	0.131782786885246	0.0294519664657941	0.263565573770492	-1	1	FALSE	-0.736434426229508	1	0.25	0.110213339280554	7.06756907691464
0.25	an assassin	an olympian	54	elaborate	1	33	1	burntHouse	simpleChoice	k	Right Item	7.23345541862144	N/A	-1	0.116747899159664	0.0286623426086149	0.233495798319328	-1	1	FALSE	-0.766504201680672	1	0.25	0.143645962882673	7.08980945573877
0.25	an addict	a mother	54	elaborate	1	63	1	serviceDog	simpleChoice	k	Right Item	6.69208374250663	N/A	-1	0.880807053941909	0.019885377113363	0.238385892116183	-1	1	FALSE	-0.761614107883817	1	0.25	-0.350153174769364	7.04223691727599
0.25	an assassin	a police officer	54	elaborate	1	26	1	medicalTreatment	simpleChoice	k	Right Item	6.85856503479136	N/A	-1	0.893507518796993	0.026848284411785	0.212984962406015	-1	1	FALSE	-0.787015037593985	1	0.25	-0.242390841549925	7.10095587634129
0.25	a rapist	a congressman	54	elaborate	1	2	1	surgery	simpleChoice	k	Right Item	6.83840520084734	N/A	-1	0.87275	0.028727439533602	0.2545	-1	1	FALSE	-0.7455	1	0.25	-0.300900184399766	7.13930538524711
0.25	an elderly person	a gang member	54	elaborate	1	21	1	bucketList	simpleChoice	d	Left Item	7.07411681619736	N/A	-1	0.1285	0.0308493583192657	0.257	1	1	TRUE	0.743	1	0.25	-0.0348115165949077	7.10892833279227
0.25	an astronaut	an assassin	54	elaborate	1	17	1	bucketList	simpleChoice	d	Left Item	6.87523208727658	N/A	-1	0.10252734375	0.0261639603978014	0.2050546875	1	1	TRUE	0.7949453125	1	0.25	-0.240080654854018	7.11531274213059
0.35	a mother	a congressman	54	elaborate	1	73	1	physicalTherapy	simpleChoice	d	Left Item	6.84161547647759	N/A	-1	0.185957446808511	0.024680902472485	0.371914893617021	1	1	TRUE	0.628085106382979	1	0.35	-0.184834969864208	7.0264504463418
0.35	a celebrity	an assassin	54	elaborate	1	72	1	bucketList	simpleChoice	k	Right Item	6.76503897678054	N/A	-1	0.818628205128205	0.0342154328304168	0.36274358974359	1	0	TRUE	0.63725641025641	0	0.35	-0.262988522871519	7.02802749965206
0.35	a convict	an adult	54	elaborate	1	92	1	hearingAids	simpleChoice	d	Left Item	7.11314210870709	N/A	-1	0.18879296875	0.0333141922622296	0.3775859375	-1	0	FALSE	-0.6224140625	0	0.35	0.116588527993271	6.99655358071382
0.35	an assassin	a celebrity	54	elaborate	1	80	1	surgery	simpleChoice	k	Right Item	7.55851674304564	N/A	-1	0.818628205128205	0.0342154328304168	0.36274358974359	-1	1	FALSE	-0.63725641025641	1	0.35	0.543095765606569	7.01542097743908
0.35	a convict	a teacher	54	elaborate	1	48	1	medicalTreatment	simpleChoice	k	Right Item	6.90274273715859	N/A	-1	0.170899209486166	0.0230602458782128	0.341798418972332	-1	1	FALSE	-0.658201581027668	1	0.35	-0.163240413518738	7.06598315067733
0.35	a mentor	a convict	54	elaborate	1	25	1	serviceDog	simpleChoice	d	Left Item	7.13648320859025	N/A	-1	0.174175572519084	0.0317875935140294	0.348351145038168	1	1	TRUE	0.651648854961832	1	0.35	0.033933556550072	7.10254965204018
0.35	a police officer	a gang member	54	elaborate	1	37	1	legalFees	simpleChoice	d	Left Item	6.97260625130175	N/A	-1	0.153125	0.0313232297015759	0.30625	1	1	TRUE	0.69375	1	0.35	-0.110841678621268	7.08344792992302
0.45	a teacher	an addict	54	elaborate	1	18	1	serviceDog	simpleChoice	d	Left Item	6.82546003625531	N/A	-1	0.774126556016598	0.0268976374572695	0.451746887966805	1	1	TRUE	0.548253112033195	1	0.45	-0.288256066204474	7.11371610245978
0.45	a mother	a judge	54	elaborate	1	71	1	bucketList	simpleChoice	d	Left Item	6.63463335786169	N/A	-1	0.235028806584362	0.0261340479753418	0.470057613168724	1	1	TRUE	0.529942386831276	1	0.45	-0.394971549062734	7.02960490692442
0.45	a nun	a mother	54	elaborate	1	12	1	paralysis	simpleChoice	k	Right Item	7.39387829010776	N/A	-1	0.77189837398374	0.0265727332440291	0.45620325203252	-1	1	FALSE	-0.54379674796748	1	0.45	0.270576972641728	7.12330131746603
0.45	a celebrity	a mother	54	elaborate	1	74	1	bucketList	simpleChoice	k	Right Item	6.96508034560141	N/A	-1	0.21578813559322	0.0262432815106397	0.431576271186441	-1	1	FALSE	-0.568423728813559	1	0.45	-0.0597934013128016	7.02487374691421
0.45	a teacher	an addict	54	elaborate	1	36	1	bucketList	simpleChoice	d	Left Item	6.67456139181443	N/A	-1	0.774126556016598	0.0268976374572695	0.451746887966805	1	1	TRUE	0.548253112033195	1	0.45	-0.410476384232362	7.08503777604679
0.45	an olympian	a convict	54	elaborate	1	53	1	counseling	simpleChoice	k	Right Item	7.55013534248843	N/A	-1	0.210772357723577	0.0380499780740398	0.421544715447155	1	0	TRUE	0.578455284552845	0	0.45	0.492076486488859	7.05805885599957
0.45	an addict	an adult	54	elaborate	1	24	1	surgery	simpleChoice	k	Right Item	6.61740297797448	N/A	-1	0.24951724137931	0.0390802732240978	0.499034482758621	-1	1	FALSE	-0.500965517241379	1	0.45	-0.486740807479943	7.10414378545442
0.45	a celebrity	a thief	54	elaborate	1	16	1	burntHouse	simpleChoice	k	Right Item	7.69575799055476	N/A	-1	0.784300884955752	0.0366875917501536	0.431398230088496	1	0	TRUE	0.568601769911504	0	0.45	0.578848250395189	7.11690974015957
0.55	a gang member	a pedophile	54	elaborate	1	88	1	medicalTreatment	simpleChoice	k	Right Item	6.97260625130175	N/A	-1	0.739467479674797	0.0351200128286331	0.521065040650406	1	0	TRUE	0.478934959349594	0	0.55	-0.0302308168697643	7.00283706817152
0.55	a judge	a father	54	elaborate	1	19	1	physicalTherapy	simpleChoice	d	Left Item	6.74758652682932	N/A	-1	0.730229508196721	0.0278426761038502	0.539540983606557	-1	0	FALSE	-0.460459016393443	0	0.55	-0.3645332942374	7.11211982106671
0.55	a congressman	a soldier	54	elaborate	1	86	1	burntHouse	simpleChoice	k	Right Item	6.880384082186	N/A	-1	0.258272321428571	0.0402788420922509	0.516544642857143	-1	1	FALSE	-0.483455357142857	1	0.55	-0.125596845558245	7.00598092774425
0.55	an olympian	a father	54	elaborate	1	30	1	surgery	simpleChoice	k	Right Item	7.05617528410041	N/A	-1	0.738280334728033	0.0273292749854864	0.523439330543933	-1	1	FALSE	-0.476560669456067	1	0.55	-0.0384090649938047	7.09458434909422
0.55	an assassin	an addict	54	elaborate	1	76	1	surgery	simpleChoice	k	Right Item	6.71901315438526	N/A	-1	0.724172131147541	0.0379270976289314	0.551655737704918	-1	1	FALSE	-0.448344262295082	1	0.55	-0.302708255004162	7.02172140938942
0.55	an astronaut	an addict	54	elaborate	1	56	1	paralysis	simpleChoice	d	Left Item	6.90975328164481	N/A	-1	0.25954132231405	0.0380275783906957	0.519082644628099	1	1	TRUE	0.480917355371901	1	0.55	-0.143555263881931	7.05330854552674
0.65	an elderly person	a celebrity	54	elaborate	1	5	1	burntHouse	simpleChoice	d	Left Item	7.23417717974985	N/A	-1	0.329754545454545	0.0428332058863414	0.659509090909091	1	1	TRUE	0.340490909090909	1	0.65	0.0996767866163193	7.13450039313353
0.65	a congressman	a mentor	54	elaborate	1	82	1	physicalTherapy	simpleChoice	d	Left Item	7.0335064842877	N/A	-1	0.327508771929825	0.0406658148151812	0.655017543859649	-1	0	FALSE	-0.344982456140351	0	0.65	0.0212336025434485	7.01227288174425
0.65	a mentor	a father	54	elaborate	1	78	1	surgery	simpleChoice	k	Right Item	6.82979373751242	N/A	-1	0.664404858299595	0.0284493885973402	0.67119028340081	-1	1	FALSE	-0.32880971659919	1	0.65	-0.188776748930211	7.01857048644264
0.65	a mentor	a father	54	elaborate	1	62	1	medicalTreatment	simpleChoice	k	Right Item	6.80903930604298	N/A	-1	0.664404858299595	0.0284493885973402	0.67119028340081	-1	1	FALSE	-0.32880971659919	1	0.65	-0.234778207741427	7.04381751378441
0.65	an adult	a congressman	54	elaborate	1	31	1	surgery	simpleChoice	d	Left Item	6.96224346426621	N/A	-1	0.343740909090909	0.0436688250868544	0.687481818181818	1	1	TRUE	0.312518181818182	1	0.65	-0.130748896502234	7.09299236076844
0.65	a teacher	a father	54	elaborate	1	14	1	hearingAids	simpleChoice	d	Left Item	7.05789793741186	N/A	-1	0.658853260869565	0.0236128238843631	0.68229347826087	-1	0	FALSE	-0.31770652173913	0	0.65	-0.0622068742019088	7.12010481161377
0.65	a gang member	a terrorist	54	elaborate	1	69	1	surgery	simpleChoice	k	Right Item	6.65027904858742	N/A	-1	0.689924369747899	0.0390298556059179	0.620151260504202	1	0	TRUE	0.379848739495798	0	0.65	-0.382481735085809	7.03276078367323
0.65	an olympian	a soldier	54	elaborate	1	40	1	counseling	simpleChoice	k	Right Item	7.16780918431644	N/A	-1	0.68304347826087	0.0424743746687976	0.633913043478261	-1	1	FALSE	-0.366086956521739	1	0.65	0.0891286525650399	7.0786805317514
0.65	a mentor	a congressman	54	elaborate	1	27	1	serviceDog	simpleChoice	d	Left Item	6.94119005506837	N/A	-1	0.327508771929825	0.0406658148151812	0.655017543859649	1	1	TRUE	0.344982456140351	1	0.65	-0.15817240320912	7.09936245827749
0.65	a police officer	a mother	54	elaborate	1	75	1	counseling	simpleChoice	d	Left Item	7.38709023565676	N/A	-1	0.690904761904762	0.028146964743329	0.618190476190476	-1	0	FALSE	-0.381809523809524	0	0.65	0.363792834366877	7.02329740128988
0.65	a soldier	a judge	54	elaborate	1	44	1	counseling	simpleChoice	d	Left Item	7.18311170174328	N/A	-1	0.321913223140496	0.0396383329038607	0.643826446280992	1	1	TRUE	0.356173553719008	1	0.65	0.110782710075608	7.07232899166767
0.65	a teacher	a mother	54	elaborate	1	55	1	surgery	simpleChoice	d	Left Item	6.70196036600254	N/A	-1	0.695286103542234	0.0235468349366754	0.609427792915531	-1	0	FALSE	-0.390572207084469	0	0.65	-0.352931261006801	7.05489162700934
0.65	a mother	a teacher	54	elaborate	1	66	1	paralysis	simpleChoice	k	Right Item	7.4899708988348	N/A	-1	0.695286103542234	0.0235468349366754	0.609427792915531	1	0	TRUE	0.390572207084469	0	0.65	0.452473643335907	7.03749725549889
0.65	a police officer	a mother	54	elaborate	1	45	1	serviceDog	simpleChoice	d	Left Item	7.76472054477148	N/A	-1	0.690904761904762	0.028146964743329	0.618190476190476	-1	0	FALSE	-0.381809523809524	0	0.65	0.693978547441565	7.07074199732991
0.65	a convict	a congressman	54	elaborate	1	67	1	counseling	simpleChoice	d	Left Item	6.67582322163485	N/A	-1	0.675	0.0418244426887968	0.65	-1	0	FALSE	-0.35	0	0.65	-0.360094855589162	7.03591807722401
0.75	a police officer	a celebrity	54	elaborate	1	89	1	burntHouse	simpleChoice	d	Left Item	6.9177056098353	N/A	-1	0.375532786885246	0.0424773922437515	0.751065573770492	1	1	TRUE	0.248934426229508	1	0.75	-0.0835600576295246	7.00126566746483
0.75	an adult	a soldier	54	elaborate	1	70	1	physicalTherapy	simpleChoice	k	Right Item	7.0335064842877	N/A	-1	0.613325	0.0426279657373813	0.77335	-1	1	FALSE	-0.22665	1	0.75	0.00232381604937437	7.03118266823832
0.75	a celebrity	an adult	54	elaborate	1	54	1	serviceDog	simpleChoice	k	Right Item	7.11151211649616	N/A	-1	0.386504464285714	0.0448626415839987	0.773008928571429	-1	1	FALSE	-0.226991071428571	1	0.75	0.055037052689122	7.05647506380704
0.75	an astronaut	a congressman	54	elaborate	1	6	1	paralysis	simpleChoice	d	Left Item	6.95368421087054	N/A	-1	0.368265217391304	0.0429104232502564	0.736530434782609	1	1	TRUE	0.263469565217391	1	0.75	-0.179215236981744	7.13289944785228
0.75	an assassin	a convict	54	elaborate	1	8	1	bucketList	simpleChoice	k	Right Item	7.33302301438648	N/A	-1	0.634537593984962	0.0396820579751176	0.730924812030075	-1	1	FALSE	-0.269075187969925	1	0.75	0.20332437944559	7.12969863494089
0.75	a congressman	an astronaut	54	elaborate	1	43	1	legalFees	simpleChoice	k	Right Item	7.42952084278646	N/A	-1	0.368265217391304	0.0429104232502564	0.736530434782609	-1	1	FALSE	-0.263469565217391	1	0.75	0.355604500587716	7.07391634219875
0.85	a celebrity	an astronaut	54	elaborate	1	1	1	medicalTreatment	simpleChoice	k	Right Item	7.01301578963963	N/A	-1	0.412175213675214	0.0449714276746044	0.824350427350427	-1	1	FALSE	-0.175649572649573	1	0.85	-0.127891978670842	7.14090776831047
0.85	a mentor	an astronaut	54	elaborate	1	87	1	paralysis	simpleChoice	k	Right Item	7.02375895473844	N/A	-1	0.55290873015873	0.0425323876544736	0.89418253968254	1	0	TRUE	0.10581746031746	0	0.85	0.0193501331668386	7.0044088215716
0.85	a mentor	an astronaut	54	elaborate	1	58	1	medicalTreatment	simpleChoice	k	Right Item	6.99117688712121	N/A	-1	0.55290873015873	0.0425323876544736	0.89418253968254	1	0	TRUE	0.10581746031746	0	0.85	-0.0589665610667014	7.05014344818791
0.85	a congressman	an addict	54	elaborate	1	13	1	bucketList	simpleChoice	d	Left Item	6.91473089271856	N/A	-1	0.594408256880734	0.0451195671356296	0.811183486238532	1	1	TRUE	0.188816513761468	1	0.85	-0.206971992481334	7.1217028851999
0.85	a judge	an adult	54	elaborate	1	52	1	medicalTreatment	simpleChoice	k	Right Item	7.58882987830781	N/A	-1	0.434831932773109	0.0422608595060235	0.869663865546218	-1	1	FALSE	-0.130336134453782	1	0.85	0.529186874641099	7.05964300366671
0.85	a terrorist	a pedophile	54	elaborate	1	79	1	burntHouse	simpleChoice	k	Right Item	7.71779621101358	N/A	-1	0.447727642276423	0.0377645174064567	0.895455284552846	1	0	TRUE	0.104544715447154	0	0.85	0.700800655775966	7.01699555523762
0.85	an elderly person	an adult	54	elaborate	1	28	1	physicalTherapy	simpleChoice	d	Left Item	7.15148546390474	N/A	-1	0.427711206896552	0.044748840679782	0.855422413793103	1	1	TRUE	0.144577586206897	1	0.85	0.0537160661362002	7.09776939776853
0.85	an assassin	a thief	54	elaborate	1	3	1	legalFees	simpleChoice	k	Right Item	7.55590509361135	N/A	-1	0.55470564516129	0.042026525929671	0.890588709677419	-1	1	FALSE	-0.109411290322581	1	0.85	0.41820173186106	7.13770336175029
0.85	a soldier	a police officer	54	elaborate	1	11	1	hearingAids	simpleChoice	d	Left Item	7.34342622914737	N/A	-1	0.402773076923077	0.0417230297392088	0.805546153846154	1	1	TRUE	0.194453846153846	1	0.85	0.218526120654706	7.12490010849266
0.85	an olympian	an adult	54	elaborate	1	22	1	serviceDog	simpleChoice	d	Left Item	7.11558212618445	N/A	-1	0.570606194690266	0.0466541092224522	0.858787610619469	-1	0	FALSE	-0.141212389380531	0	0.85	0.00824900043430166	7.10733312575015
0.85	an olympian	a police officer	54	elaborate	1	57	1	medicalTreatment	simpleChoice	k	Right Item	7.04315991598834	N/A	-1	0.583369918699187	0.0420673795181684	0.833260162601626	-1	1	FALSE	-0.166739837398374	1	0.85	-0.00856590329116091	7.0517258192795
0.85	a nun	an adult	54	elaborate	1	29	1	paralysis	simpleChoice	k	Right Item	7.68109900153636	N/A	-1	0.422135245901639	0.0427920705001026	0.844270491803279	-1	1	FALSE	-0.155729508196721	1	0.85	0.584922306802178	7.09617669473418
0.85	a police officer	a soldier	54	elaborate	1	85	1	counseling	simpleChoice	k	Right Item	7.14124512235049	N/A	-1	0.402773076923077	0.0417230297392088	0.805546153846154	-1	1	FALSE	-0.194453846153846	1	0.85	0.133691735581858	7.00755338676863
0.95	a police officer	a mentor	54	elaborate	1	49	1	serviceDog	simpleChoice	d	Left Item	7.06902342657826	N/A	-1	0.498351145038168	0.0437469765113986	0.996702290076336	1	1	TRUE	0.00329770992366396	1	0.95	0.00462584626452944	7.06439758031373
0.95	a mentor	an adult	54	elaborate	1	15	1	paralysis	simpleChoice	k	Right Item	7.73587031995257	N/A	-1	0.516272727272727	0.0445419942127882	0.967454545454546	1	0	TRUE	0.032545454545454	0	0.95	0.617363223325421	7.11850709662715
0.95	an astronaut	a judge	54	elaborate	1	65	1	serviceDog	simpleChoice	d	Left Item	6.99117688712121	N/A	-1	0.460483870967742	0.042928181663263	0.920967741935484	1	1	TRUE	0.079032258064516	1	0.95	-0.047899901091605	7.03907678821281
0.95	an olympian	a nun	54	elaborate	1	42	1	bucketList	simpleChoice	k	Right Item	7.43720636687129	N/A	-1	0.481880341880342	0.0462695656039323	0.963760683760684	1	0	TRUE	0.036239316239316	0	0.95	0.361702317868211	7.07550404900308
0.95	an adult	a police officer	54	elaborate	1	10	1	legalFees	simpleChoice	k	Right Item	7.11639414409346	N/A	-1	0.51894140625	0.044437196902434	0.9621171875	-1	1	FALSE	-0.0378828125	1	0.95	-0.0101051142668549	7.12649925836032
0.95	a rapist	a pedophile	54	elaborate	1	46	1	paralysis	simpleChoice	d	Left Item	7.35819375273303	N/A	-1	0.485915384615385	0.0356411328316191	0.971830769230769	1	1	TRUE	0.0281692307692309	1	0.95	0.289038393627492	7.06915535910554
0.05	a pedophile	a teacher	45	elaborate	1	51	1	paralysis	simpleChoice	k	Right Item	6.75110146893676	N/A	-1	0.037125	0.0115989117000102	0.07425	-1	1	FALSE	-0.92575	1	0.05	-0.555070955088667	7.30617242402543
0.05	a mother	a rapist	45	elaborate	1	52	1	burntHouse	simpleChoice	d	Left Item	6.72503364216684	N/A	-1	0.970038	0.0103945467723515	0.0599240000000001	1	1	TRUE	0.940076	1	0.05	-0.586054225127152	7.311087867294
0.05	a pedophile	an astronaut	45	elaborate	1	44	1	surgery	simpleChoice	k	Right Item	7.27170370688737	N/A	-1	0.0454765625	0.0176284878366701	0.090953125	-1	1	FALSE	-0.909046875	1	0.05	-0.000153023950825393	7.27185673083819
0.05	a mother	a terrorist	45	elaborate	1	28	1	serviceDog	simpleChoice	d	Left Item	6.78219205600679	N/A	-1	0.978148148148148	0.00886737512639762	0.0437037037037038	1	1	TRUE	0.956296296296296	1	0.05	-0.411832812551705	7.1940248685585
0.05	a judge	a pedophile	45	elaborate	1	22	1	hearingAids	simpleChoice	d	Left Item	7.11232744471091	N/A	-1	0.952471774193548	0.0183049591011055	0.0950564516129031	1	1	TRUE	0.904943548387097	1	0.05	-0.0527257264284566	7.16505317113937
0.05	a mother	a pedophile	45	elaborate	1	15	1	hearingAids	simpleChoice	d	Left Item	6.54678541076052	N/A	-1	0.976674089068826	0.00967609627649961	0.0466518218623482	1	1	TRUE	0.953348178137652	1	0.05	-0.584614877306645	7.13140028806717
0.05	a terrorist	an adult	45	elaborate	1	6	1	burntHouse	simpleChoice	k	Right Item	6.71174039505618	N/A	-1	0.0489533898305085	0.0193380188761912	0.0979067796610169	-1	1	FALSE	-0.902093220338983	1	0.05	-0.37662404962934	7.08836444468552
0.05	a father	a rapist	45	elaborate	1	8	1	physicalTherapy	simpleChoice	d	Left Item	6.63200177739563	N/A	-1	0.961657370517928	0.0116384162759155	0.0766852589641434	1	1	TRUE	0.923314741035857	1	0.05	-0.465903688748648	7.09790546614428
0.05	a terrorist	a mentor	45	elaborate	1	70	1	surgery	simpleChoice	k	Right Item	7.20266119652324	N/A	-1	0.960352459016393	0.0163594204632685	0.0792950819672131	-1	1	FALSE	-0.920704918032787	1	0.05	-0.197472309981232	7.40013350650447
0.05	a terrorist	a soldier	45	elaborate	1	48	1	medicalTreatment	simpleChoice	k	Right Item	7.21376830811864	N/A	-1	0.966966666666667	0.0160823152277683	0.0660666666666667	-1	1	FALSE	-0.933933333333333	1	0.05	-0.0776776059323767	7.29144591405102
0.05	an elderly person	a terrorist	45	elaborate	1	62	1	bucketList	simpleChoice	d	Left Item	7.87587915949631	N/A	-1	0.0442136752136752	0.0179078920324496	0.0884273504273504	1	1	TRUE	0.91157264957265	1	0.05	0.515454606386253	7.36042455311006
0.05	a terrorist	a teacher	45	elaborate	1	7	1	hearingAids	simpleChoice	k	Right Item	6.70441435496411	N/A	-1	0.956987654320988	0.0127603944038782	0.0860246913580247	-1	1	FALSE	-0.913975308641975	1	0.05	-0.388718996239444	7.09313335120355
0.15	a terrorist	a judge	45	elaborate	1	42	1	hearingAids	simpleChoice	k	Right Item	7.40184157874383	N/A	-1	0.938693277310924	0.02206874779007	0.122613445378151	-1	1	FALSE	-0.877386554621849	1	0.15	0.139759695069336	7.26208188367449
0.15	a mother	a gang member	45	elaborate	1	79	1	physicalTherapy	simpleChoice	k	Right Item	7.87663846097546	N/A	-1	0.0853477366255144	0.0167997810245133	0.170695473251029	1	0	TRUE	0.829304526748971	0	0.15	0.431576256310164	7.4450622046653
0.15	a nun	a pedophile	45	elaborate	1	31	1	paralysis	simpleChoice	d	Left Item	7.33171496972647	N/A	-1	0.94946062992126	0.0188604376229214	0.10107874015748	1	1	TRUE	0.89892125984252	1	0.15	0.12316035216732	7.20855461755915
0.15	an assassin	a mother	45	elaborate	1	76	1	surgery	simpleChoice	k	Right Item	7.67925142595306	N/A	-1	0.948770161290323	0.0134961295840683	0.102459677419355	-1	1	FALSE	-0.897540322580645	1	0.15	0.249195681093795	7.43005574485926
0.15	a rapist	a police officer	45	elaborate	1	11	1	bucketList	simpleChoice	k	Right Item	6.76849321164863	N/A	-1	0.942292592592593	0.0200015786769275	0.115414814814815	-1	1	FALSE	-0.884585185185185	1	0.15	-0.343747871446899	7.11224108309553
0.15	a rapist	an adult	45	elaborate	1	50	1	legalFees	simpleChoice	k	Right Item	6.93828448401696	N/A	-1	0.050872	0.019218974608053	0.101744	-1	1	FALSE	-0.898256	1	0.15	-0.362975801526131	7.30126028554309
0.25	a terrorist	a congressman	45	elaborate	1	92	1	burntHouse	simpleChoice	k	Right Item	6.89365635460264	N/A	-1	0.865063063063063	0.031605220616849	0.269873873873874	-1	1	FALSE	-0.730126126126126	1	0.25	-0.61678486098134	7.51044121558397
0.25	a thief	an adult	45	elaborate	1	32	1	medicalTreatment	simpleChoice	k	Right Item	7.09837563859079	N/A	-1	0.125147058823529	0.0307522679952836	0.250294117647059	-1	1	FALSE	-0.749705882352941	1	0.25	-0.11502874697472	7.21340438556551
0.25	a mother	a convict	45	elaborate	1	81	1	serviceDog	simpleChoice	k	Right Item	6.99209642741589	N/A	-1	0.104509920634921	0.0180547786630647	0.209019841269841	1	0	TRUE	0.790980158730159	0	0.25	-0.462986918065578	7.45508334548147
0.25	an elderly person	a thief	45	elaborate	1	94	1	burntHouse	simpleChoice	k	Right Item	7.66669020008009	N/A	-1	0.103538461538462	0.0266643883761814	0.207076923076923	1	0	TRUE	0.792923076923077	0	0.25	0.146139842766474	7.52055035731361
0.25	an assassin	an olympian	45	elaborate	1	17	1	serviceDog	simpleChoice	k	Right Item	7.22475340576797	N/A	-1	0.116747899159664	0.0286623426086149	0.233495798319328	-1	1	FALSE	-0.766504201680672	1	0.25	0.0837541694934387	7.14099923627453
0.25	a mentor	a gang member	45	elaborate	1	55	1	serviceDog	simpleChoice	k	Right Item	7.77904864492556	N/A	-1	0.131782786885246	0.0294519664657941	0.263565573770492	1	0	TRUE	0.736434426229508	0	0.25	0.453194596867055	7.3258540480585
0.25	a gang member	a mentor	45	elaborate	1	73	1	legalFees	simpleChoice	k	Right Item	7.04577657687951	N/A	-1	0.131782786885246	0.0294519664657941	0.263565573770492	-1	1	FALSE	-0.736434426229508	1	0.25	-0.369302955581962	7.41507953246147
0.25	a soldier	a convict	45	elaborate	1	95	1	medicalTreatment	simpleChoice	d	Left Item	7.23417717974985	N/A	-1	0.141180769230769	0.0304633558327537	0.282361538461538	1	1	TRUE	0.717638461538462	1	0.25	-0.291432849918088	7.52561002966794
0.35	a gang member	a nun	45	elaborate	1	10	1	burntHouse	simpleChoice	d	Left Item	7.26892012819372	N/A	-1	0.179905737704918	0.0341178845165442	0.359811475409836	-1	0	FALSE	-0.640188524590164	0	0.35	0.161460798264194	7.10745932992953
0.35	a convict	a police officer	45	elaborate	1	65	1	paralysis	simpleChoice	k	Right Item	7.41997992366183	N/A	-1	0.188992753623188	0.0315803485877791	0.377985507246377	-1	1	FALSE	-0.622014492753623	1	0.35	0.0446895446408453	7.37529037902099
0.35	a gang member	a judge	45	elaborate	1	12	1	counseling	simpleChoice	k	Right Item	6.82654522355659	N/A	-1	0.173571428571429	0.0334410614495127	0.347142857142857	-1	1	FALSE	-0.652857142857143	1	0.35	-0.290480829770594	7.11702605332719
0.35	a convict	an astronaut	45	elaborate	1	26	1	burntHouse	simpleChoice	k	Right Item	6.8596149036542	N/A	-1	0.193007518796992	0.0335872791813001	0.386015037593985	-1	1	FALSE	-0.613984962406015	1	0.35	-0.324739739515529	7.18435464316973
0.35	a thief	a judge	45	elaborate	1	36	1	hearingAids	simpleChoice	k	Right Item	7.83122021460429	N/A	-1	0.8475125	0.0313983634725846	0.304975	-1	1	FALSE	-0.695025	1	0.35	0.598384106807818	7.23283610779647
0.35	a thief	a judge	45	elaborate	1	59	1	serviceDog	simpleChoice	k	Right Item	7.30787278076371	N/A	-1	0.8475125	0.0313983634725846	0.304975	-1	1	FALSE	-0.695025	1	0.35	-0.0377159103783491	7.34558869114205
0.35	a convict	an adult	45	elaborate	1	20	1	burntHouse	simpleChoice	k	Right Item	6.72503364216684	N/A	-1	0.18879296875	0.0333141922622296	0.3775859375	-1	1	FALSE	-0.6224140625	1	0.35	-0.430388247408539	7.15542188957538
0.35	an addict	a terrorist	45	elaborate	1	43	1	counseling	simpleChoice	d	Left Item	7.9355873855892	N/A	-1	0.18692735042735	0.0341446724899859	0.373854700854701	1	1	TRUE	0.626145299145299	1	0.35	0.668619721859268	7.26696766372993
0.35	a gang member	a police officer	45	elaborate	1	86	1	physicalTherapy	simpleChoice	d	Left Item	8.0323601479245	N/A	-1	0.153125	0.0313232297015759	0.30625	-1	0	FALSE	-0.69375	0	0.35	0.552164898174342	7.48019524975016
0.35	an addict	a rapist	45	elaborate	1	77	1	paralysis	simpleChoice	d	Left Item	7.41155628781116	N/A	-1	0.170766129032258	0.0312929537594387	0.341532258064516	1	1	TRUE	0.658467741935484	1	0.35	-0.0234982464793578	7.43505453429052
0.45	a police officer	an addict	45	elaborate	1	45	1	bucketList	simpleChoice	d	Left Item	7.46164039220858	N/A	-1	0.758376984126984	0.0376655604080243	0.483246031746032	1	1	TRUE	0.516753968253968	1	0.45	0.184891304997836	7.27674908721074
0.45	a mother	a celebrity	45	elaborate	1	68	1	legalFees	simpleChoice	d	Left Item	6.93634273583405	N/A	-1	0.21578813559322	0.0262432815106397	0.431576271186441	1	1	TRUE	0.568423728813559	1	0.45	-0.453843493558883	7.39018622939293
0.45	a celebrity	a father	45	elaborate	1	29	1	surgery	simpleChoice	k	Right Item	6.7945865808765	N/A	-1	0.246485232067511	0.0271877432101647	0.492970464135021	-1	1	FALSE	-0.507029535864979	1	0.45	-0.404278280370616	7.19886486124711
0.45	a convict	an olympian	45	elaborate	1	58	1	paralysis	simpleChoice	k	Right Item	6.91869521902047	N/A	-1	0.210772357723577	0.0380499780740398	0.421544715447155	-1	1	FALSE	-0.578455284552845	1	0.45	-0.42195483301056	7.34065005203103
0.45	a convict	a nun	45	elaborate	1	69	1	legalFees	simpleChoice	k	Right Item	6.84268328223842	N/A	-1	0.227174242424242	0.0346919254151378	0.454348484848485	-1	1	FALSE	-0.545651515151515	1	0.45	-0.552474913191785	7.39515819543021
0.55	a soldier	a celebrity	45	elaborate	1	74	1	paralysis	simpleChoice	k	Right Item	7.05272104923232	N/A	-1	0.290021929824561	0.0412457527428163	0.580043859649123	1	0	TRUE	0.419956140350877	0	0.55	-0.367347196971229	7.42006824620355
0.55	an elderly person	a congressman	45	elaborate	1	56	1	paralysis	simpleChoice	k	Right Item	7.15383380157884	N/A	-1	0.29051376146789	0.040791360904219	0.58102752293578	1	0	TRUE	0.41897247706422	0	0.55	-0.176948931142043	7.33078273272089
0.55	a gang member	a congressman	45	elaborate	1	16	1	hearingAids	simpleChoice	k	Right Item	6.82001636467413	N/A	-1	0.725797297297297	0.0420374210959715	0.548405405405405	-1	1	FALSE	-0.451594594594595	1	0.55	-0.316181783545667	7.1361981482198
0.55	a mentor	a mother	45	elaborate	1	54	1	hearingAids	simpleChoice	k	Right Item	7.54274354536855	N/A	-1	0.295975609756098	0.0275578150866277	0.591951219512195	-1	1	FALSE	-0.408048780487805	1	0.55	0.221814868283655	7.3209286770849
0.55	a father	an olympian	45	elaborate	1	19	1	paralysis	simpleChoice	d	Left Item	6.92165818415113	N/A	-1	0.738280334728033	0.0273292749854864	0.523439330543933	1	1	TRUE	0.476560669456067	1	0.55	-0.228952920627338	7.15061110477847
0.55	a convict	a terrorist	45	elaborate	1	57	1	physicalTherapy	simpleChoice	d	Left Item	7.65396918047877	N/A	-1	0.725265625	0.0349490036859406	0.54946875	1	1	TRUE	0.45053125	1	0.55	0.318254447177337	7.33571473330144
0.55	a father	an astronaut	45	elaborate	1	88	1	bucketList	simpleChoice	d	Left Item	6.98100574072173	N/A	-1	0.711800403225806	0.0286224818394116	0.576399193548387	1	1	TRUE	0.423600806451613	1	0.55	-0.509257939334248	7.49026368005598
0.55	an addict	an astronaut	45	elaborate	1	18	1	counseling	simpleChoice	k	Right Item	6.76619171466035	N/A	-1	0.25954132231405	0.0380275783906957	0.519082644628099	-1	1	FALSE	-0.480917355371901	1	0.55	-0.379611839742697	7.14580355440305
0.55	an elderly person	a congressman	45	elaborate	1	49	1	surgery	simpleChoice	k	Right Item	7.4899708988348	N/A	-1	0.29051376146789	0.040791360904219	0.58102752293578	1	0	TRUE	0.41897247706422	0	0.55	0.193619449209712	7.29635144962509
0.55	a convict	a terrorist	45	elaborate	1	13	1	bucketList	simpleChoice	d	Left Item	6.95939851213398	N/A	-1	0.725265625	0.0349490036859406	0.54946875	1	1	TRUE	0.45053125	1	0.55	-0.162415730654908	7.12181424278888
0.65	a celebrity	an elderly person	45	elaborate	1	25	1	hearingAids	simpleChoice	k	Right Item	7.00215595440362	N/A	-1	0.329754545454545	0.0428332058863414	0.659509090909091	-1	1	FALSE	-0.340490909090909	1	0.65	-0.177368451691851	7.17952440609547
0.65	a terrorist	a thief	45	elaborate	1	60	1	counseling	simpleChoice	k	Right Item	7.67322312112171	N/A	-1	0.348201680672269	0.0404738559235265	0.696403361344538	-1	1	FALSE	-0.303596638655462	1	0.65	0.322692468253317	7.35053065286839
0.65	a father	a police officer	45	elaborate	1	90	1	paralysis	simpleChoice	d	Left Item	8.14235427684983	N/A	-1	0.655899209486166	0.028567857219352	0.688201581027668	1	1	TRUE	0.311798418972332	1	0.65	0.642008614263069	7.50034566258677
0.65	a congressman	a police officer	45	elaborate	1	27	1	legalFees	simpleChoice	d	Left Item	7.25981961036319	N/A	-1	0.338445833333333	0.0421871625470012	0.676891666666667	-1	0	FALSE	-0.323108333333333	0	0.65	0.0706314804345531	7.18918812992863
0.65	a teacher	a congressman	45	elaborate	1	93	1	physicalTherapy	simpleChoice	d	Left Item	7.50659178007084	N/A	-1	0.324102127659574	0.0301868115751312	0.648204255319149	1	1	TRUE	0.351795744680851	1	0.65	-0.00890230664381342	7.51549408671465
0.65	a teacher	a congressman	45	elaborate	1	5	1	burntHouse	simpleChoice	d	Left Item	6.8134445995109	N/A	-1	0.324102127659574	0.0301868115751312	0.648204255319149	1	1	TRUE	0.351795744680851	1	0.65	-0.270154144922182	7.08359874443308
0.65	a teacher	a mother	45	elaborate	1	34	1	surgery	simpleChoice	k	Right Item	8.30003171177957	N/A	-1	0.695286103542234	0.0235468349366754	0.609427792915531	-1	1	FALSE	-0.390572207084469	1	0.65	1.07691799953223	7.22311371224735
0.65	a thief	a rapist	45	elaborate	1	71	1	counseling	simpleChoice	d	Left Item	7.24279792279376	N/A	-1	0.319571428571429	0.0377483932391428	0.639142857142857	1	1	TRUE	0.360857142857143	1	0.65	-0.162314242072436	7.40511216486619
0.65	a father	a mentor	45	elaborate	1	39	1	legalFees	simpleChoice	d	Left Item	7.93808872689695	N/A	-1	0.664404858299595	0.0284493885973402	0.67119028340081	1	1	TRUE	0.32880971659919	1	0.65	0.690644483164165	7.24744424373279
0.65	a soldier	a judge	45	elaborate	1	3	1	paralysis	simpleChoice	d	Left Item	7.18841273649695	N/A	-1	0.321913223140496	0.0396383329038607	0.643826446280992	1	1	TRUE	0.356173553719008	1	0.65	0.114335782393185	7.07407695410377
0.65	a nun	a soldier	45	elaborate	1	64	1	bucketList	simpleChoice	d	Left Item	7.15773548424991	N/A	-1	0.308895161290323	0.0416834134020061	0.617790322580645	-1	0	FALSE	-0.382209677419355	0	0.65	-0.212596286407273	7.37033177065718
0.65	a soldier	an astronaut	45	elaborate	1	67	1	medicalTreatment	simpleChoice	k	Right Item	7.2283884515736	N/A	-1	0.654556	0.0415574046576766	0.690888	1	0	TRUE	0.309112	0	0.65	-0.156829154570079	7.38521760614368
0.65	an olympian	a soldier	45	elaborate	1	2	1	counseling	simpleChoice	k	Right Item	7.01211529430638	N/A	-1	0.68304347826087	0.0424743746687976	0.633913043478261	-1	1	FALSE	-0.366086956521739	1	0.65	-0.0572055654135513	7.06932085971993
0.65	a soldier	an olympian	45	elaborate	1	61	1	surgery	simpleChoice	k	Right Item	7.43955930913332	N/A	-1	0.68304347826087	0.0424743746687976	0.633913043478261	1	0	TRUE	0.366086956521739	0	0.65	0.0840833696878915	7.35547593944543
0.65	a convict	a congressman	45	elaborate	1	21	1	physicalTherapy	simpleChoice	k	Right Item	6.82654522355659	N/A	-1	0.675	0.0418244426887968	0.65	-1	1	FALSE	-0.35	1	0.65	-0.333690687413249	7.16023591096984
0.65	a congressman	a mentor	45	elaborate	1	91	1	counseling	simpleChoice	k	Right Item	7.23921497377981	N/A	-1	0.327508771929825	0.0406658148151812	0.655017543859649	-1	1	FALSE	-0.344982456140351	1	0.65	-0.266176767856212	7.50539174163602
0.75	a mentor	a celebrity	45	elaborate	1	14	1	paralysis	simpleChoice	d	Left Item	7.14677217945264	N/A	-1	0.371073913043478	0.044447692351678	0.742147826086957	1	1	TRUE	0.257852173913043	1	0.75	0.0201665258061894	7.12660565364645
0.75	a celebrity	a mentor	45	elaborate	1	41	1	serviceDog	simpleChoice	k	Right Item	7.29233717617388	N/A	-1	0.371073913043478	0.044447692351678	0.742147826086957	-1	1	FALSE	-0.257852173913043	1	0.75	0.0351377877119754	7.2571993884619
0.75	an addict	a celebrity	45	elaborate	1	1	1	legalFees	simpleChoice	k	Right Item	7.27309259599952	N/A	-1	0.640104545454545	0.0449686632268288	0.719790909090909	-1	1	FALSE	-0.280209090909091	1	0.75	0.208524633011787	7.06456796298774
0.75	a congressman	an astronaut	45	elaborate	1	38	1	bucketList	simpleChoice	k	Right Item	7.69074316354187	N/A	-1	0.368265217391304	0.0429104232502564	0.736530434782609	-1	1	FALSE	-0.263469565217391	1	0.75	0.448171573738133	7.24257158980374
0.75	a pedophile	an assassin	45	elaborate	1	66	1	physicalTherapy	simpleChoice	k	Right Item	7.61726781362835	N/A	-1	0.35645703125	0.0368183139075628	0.7129140625	-1	1	FALSE	-0.2870859375	1	0.75	0.237015490193333	7.38025232343501
0.85	an elderly person	a mentor	45	elaborate	1	89	1	bucketList	simpleChoice	k	Right Item	7.1770187659099	N/A	-1	0.439920833333333	0.0440507934035565	0.879841666666667	1	0	TRUE	0.120158333333333	0	0.85	-0.318284210243836	7.49530297615374
0.85	a congressman	an addict	45	elaborate	1	46	1	legalFees	simpleChoice	d	Left Item	7.04664727784876	N/A	-1	0.594408256880734	0.0451195671356296	0.811183486238532	1	1	TRUE	0.188816513761468	1	0.85	-0.234997457211761	7.28164473506052
0.85	a terrorist	a pedophile	45	elaborate	1	33	1	serviceDog	simpleChoice	d	Left Item	8.71768205216564	N/A	-1	0.447727642276423	0.0377645174064567	0.895455284552846	1	1	TRUE	0.104544715447154	1	0.85	1.49942463576912	7.21825741639652
0.85	a convict	a gang member	45	elaborate	1	9	1	medicalTreatment	simpleChoice	d	Left Item	7.09672137849476	N/A	-1	0.55037890625	0.0426030854912737	0.8992421875	1	1	TRUE	0.1007578125	1	0.85	-0.00595941317150572	7.10268079166627
0.85	a convict	a gang member	45	elaborate	1	80	1	hearingAids	simpleChoice	k	Right Item	7.4713630881871	N/A	-1	0.55037890625	0.0426030854912737	0.8992421875	1	0	TRUE	0.1007578125	0	0.85	0.0212919980515274	7.45007109013557
0.85	a judge	a police officer	45	elaborate	1	53	1	bucketList	simpleChoice	d	Left Item	6.81563999007433	N/A	-1	0.419852713178295	0.0439803913040538	0.839705426356589	-1	0	FALSE	-0.160294573643411	0	0.85	-0.500366627497858	7.31600661757219
0.85	a terrorist	a pedophile	45	elaborate	1	30	1	bucketList	simpleChoice	d	Left Item	8.57224939716431	N/A	-1	0.447727642276423	0.0377645174064567	0.895455284552846	1	1	TRUE	0.104544715447154	1	0.85	1.36854128698056	7.20370811018375
0.85	a teacher	a soldier	45	elaborate	1	72	1	physicalTherapy	simpleChoice	d	Left Item	7.36010397298915	N/A	-1	0.594814285714286	0.0298505412974152	0.810371428571429	-1	0	FALSE	-0.189628571428571	0	0.85	-0.0499901997782075	7.41009417276736
0.85	an adult	a judge	45	elaborate	1	47	1	hearingAids	simpleChoice	d	Left Item	8.11761074646623	N/A	-1	0.434831932773109	0.0422608595060235	0.869663865546218	1	1	TRUE	0.130336134453782	1	0.85	0.831067069864261	7.28654367660197
0.85	an olympian	a celebrity	45	elaborate	1	4	1	medicalTreatment	simpleChoice	d	Left Item	6.94312242281943	N/A	-1	0.445682242990654	0.0458827668718074	0.891364485981308	1	1	TRUE	0.108635514018692	1	0.85	-0.135713825471136	7.07883624829056
0.85	an astronaut	a nun	45	elaborate	1	78	1	counseling	simpleChoice	d	Left Item	7.22402480828583	N/A	-1	0.443023622047244	0.043270207993225	0.886047244094488	1	1	TRUE	0.113952755905512	1	0.85	-0.216031878519164	7.44005668680499
0.85	an assassin	a terrorist	45	elaborate	1	37	1	paralysis	simpleChoice	d	Left Item	8.70698676304889	N/A	-1	0.405181451612903	0.0399278719381855	0.810362903225806	1	1	TRUE	0.189637096774194	1	0.85	1.4692845511564	7.23770221189249
0.85	an elderly person	an adult	45	elaborate	1	40	1	counseling	simpleChoice	k	Right Item	7.32778053842163	N/A	-1	0.427711206896552	0.044748840679782	0.855422413793103	1	0	TRUE	0.144577586206897	0	0.85	0.0754603625379637	7.25232017588367
0.95	a gang member	a thief	45	elaborate	1	35	1	bucketList	simpleChoice	d	Left Item	7.2991214627108	N/A	-1	0.53527731092437	0.0427149012346878	0.929445378151261	1	1	TRUE	0.070554621848739	1	0.95	0.0711481873961741	7.22797327531463
0.95	a rapist	a terrorist	45	elaborate	1	83	1	serviceDog	simpleChoice	k	Right Item	7.87016594646984	N/A	-1	0.464003968253968	0.0390676334135411	0.928007936507936	-1	1	FALSE	-0.071992063492064	1	0.95	0.405047971599449	7.4651179748704
0.95	a teacher	a mentor	45	elaborate	1	63	1	burntHouse	simpleChoice	d	Left Item	7.32251043399739	N/A	-1	0.488878048780488	0.0299370414899347	0.977756097560976	1	1	TRUE	0.022243902439024	1	0.95	-0.0428660621032799	7.36537649610067
0.95	an elderly person	a soldier	45	elaborate	1	23	1	bucketList	simpleChoice	k	Right Item	6.99209642741589	N/A	-1	0.538203389830509	0.0445302870268502	0.923593220338983	-1	1	FALSE	-0.0764067796610171	1	0.95	-0.17777724484705	7.16987367226294
0.95	an adult	an astronaut	45	elaborate	1	87	1	bucketList	simpleChoice	d	Left Item	7.7698009960039	N/A	-1	0.536056910569106	0.0441780735364672	0.927886178861789	1	1	TRUE	0.072113821138211	1	0.95	0.284573223989816	7.48522777201408
0.95	a mentor	a police officer	45	elaborate	1	75	1	surgery	simpleChoice	d	Left Item	7.33432935030054	N/A	-1	0.498351145038168	0.0437469765113986	0.996702290076336	-1	0	FALSE	-0.00329770992366396	0	0.95	-0.0907309659495965	7.42506031625013
0.95	a police officer	a teacher	45	elaborate	1	82	1	surgery	simpleChoice	k	Right Item	7.24565506759454	N/A	-1	0.493867588932806	0.0310200363062096	0.987735177865613	-1	1	FALSE	-0.012264822134387	1	0.95	-0.214443905375636	7.46009897297017
0.95	a thief	a gang member	45	elaborate	1	24	1	serviceDog	simpleChoice	k	Right Item	7.21817683840341	N/A	-1	0.53527731092437	0.0427149012346878	0.929445378151261	-1	1	FALSE	-0.070554621848739	1	0.95	0.0434794218824077	7.174697416521
0.95	an olympian	a judge	45	elaborate	1	85	1	hearingAids	simpleChoice	d	Left Item	7.33953769540767	N/A	-1	0.501	0.0446593101154506	0.998	-1	0	FALSE	-0.002	0	0.95	-0.135628415580186	7.47516611098786
0.05	a pedophile	a teacher	4	elaborate	1	54	1	medicalTreatment	simpleChoice	k	Right Item	6.80903930604298	N/A	-1	0.037125	0.0115989117000102	0.07425	-1	1	FALSE	-0.92575	1	0.05	-0.430891264696716	7.2399305707397
0.05	a mentor	a pedophile	4	elaborate	1	34	1	counseling	simpleChoice	k	Right Item	7.47647238116391	N/A	-1	0.965047619047619	0.0157018513378845	0.0699047619047619	1	0	TRUE	0.930095238095238	0	0.05	0.236541810424209	7.2399305707397
0.05	a pedophile	a teacher	4	elaborate	1	53	1	legalFees	simpleChoice	k	Right Item	7.20340552108309	N/A	-1	0.037125	0.0115989117000102	0.07425	-1	1	FALSE	-0.92575	1	0.05	-0.0365250496566007	7.2399305707397
0.05	a mother	a pedophile	4	elaborate	1	50	1	bucketList	simpleChoice	d	Left Item	6.66695679242921	N/A	-1	0.976674089068826	0.00967609627649961	0.0466518218623482	1	1	TRUE	0.953348178137652	1	0.05	-0.572973778310489	7.2399305707397
0.05	an elderly person	a rapist	4	elaborate	1	4	1	serviceDog	simpleChoice	d	Left Item	7.19067603433221	N/A	-1	0.0482258064516129	0.0176655216583874	0.0964516129032258	1	1	TRUE	0.903548387096774	1	0.05	-0.04806423216273	7.23874026649494
0.05	a pedophile	a police officer	4	elaborate	1	12	1	hearingAids	simpleChoice	k	Right Item	6.94312242281943	N/A	-1	0.047	0.0180470867658726	0.094	-1	1	FALSE	-0.906	1	0.05	-0.296808147754423	7.23993057057385
0.05	a pedophile	a judge	4	elaborate	1	77	1	counseling	simpleChoice	d	Left Item	6.91274282049318	N/A	-1	0.952471774193548	0.0183049591011055	0.0950564516129031	-1	0	FALSE	-0.904943548387097	0	0.05	-0.327187750246519	7.2399305707397
0.05	an adult	a pedophile	4	elaborate	1	73	1	burntHouse	simpleChoice	d	Left Item	6.96885037834195	N/A	-1	0.0393943089430894	0.0172001772453226	0.0787886178861789	1	1	TRUE	0.921211382113821	1	0.05	-0.271080192397748	7.2399305707397
0.05	a terrorist	an adult	4	elaborate	1	86	1	legalFees	simpleChoice	k	Right Item	6.73221070646721	N/A	-1	0.0489533898305085	0.0193380188761912	0.0979067796610169	-1	1	FALSE	-0.902093220338983	1	0.05	-0.50771986427249	7.2399305707397
0.05	an adult	a terrorist	4	elaborate	1	17	1	surgery	simpleChoice	d	Left Item	6.82328612235569	N/A	-1	0.0489533898305085	0.0193380188761912	0.0979067796610169	1	1	TRUE	0.902093220338983	1	0.05	-0.416644448384	7.23993057073969
0.05	a rapist	a soldier	4	elaborate	1	65	1	surgery	simpleChoice	k	Right Item	6.86066367144829	N/A	-1	0.0390866141732283	0.0170966232493728	0.0781732283464567	-1	1	FALSE	-0.921826771653543	1	0.05	-0.379266899291409	7.2399305707397
0.15	a thief	a father	4	elaborate	1	76	1	hearingAids	simpleChoice	k	Right Item	6.77992190747225	N/A	-1	0.927987704918033	0.0156861284015264	0.144024590163934	-1	1	FALSE	-0.855975409836066	1	0.15	-0.460008663267444	7.2399305707397
0.15	a rapist	a judge	4	elaborate	1	40	1	physicalTherapy	simpleChoice	k	Right Item	6.71780469502369	N/A	-1	0.936230158730159	0.0218179385991741	0.127539682539683	-1	1	FALSE	-0.872460317460317	1	0.15	-0.522125875716005	7.2399305707397
0.15	a soldier	an assassin	4	elaborate	1	61	1	counseling	simpleChoice	d	Left Item	6.91373735065968	N/A	-1	0.928784	0.0223752988359485	0.142432	1	1	TRUE	0.857568	1	0.15	-0.326193220080011	7.2399305707397
0.15	a gang member	a mother	4	elaborate	1	94	1	bucketList	simpleChoice	k	Right Item	6.81014245011514	N/A	-1	0.0853477366255144	0.0167997810245133	0.170695473251029	-1	1	FALSE	-0.829304526748971	1	0.15	-0.42978812062456	7.2399305707397
0.15	a father	a thief	4	elaborate	1	64	1	medicalTreatment	simpleChoice	d	Left Item	7.13089883029635	N/A	-1	0.927987704918033	0.0156861284015264	0.144024590163934	1	1	TRUE	0.855975409836066	1	0.15	-0.109031740443349	7.2399305707397
0.15	an olympian	a terrorist	4	elaborate	1	28	1	legalFees	simpleChoice	d	Left Item	7.0343879299155	N/A	-1	0.058890350877193	0.0206787431113388	0.117780701754386	1	1	TRUE	0.882219298245614	1	0.15	-0.205542640824192	7.2399305707397
0.15	an astronaut	a rapist	4	elaborate	1	74	1	physicalTherapy	simpleChoice	d	Left Item	7.88495294575981	N/A	-1	0.0574269230769231	0.019607928156392	0.114853846153846	1	1	TRUE	0.885146153846154	1	0.15	0.645022375020118	7.2399305707397
0.15	an olympian	a rapist	4	elaborate	1	8	1	serviceDog	simpleChoice	d	Left Item	6.8627579130514	N/A	-1	0.059896694214876	0.0206690042924156	0.119793388429752	1	1	TRUE	0.880206611570248	1	0.15	-0.377172213385093	7.23993012643649
0.25	a thief	a mentor	4	elaborate	1	26	1	physicalTherapy	simpleChoice	k	Right Item	6.89467003943348	N/A	-1	0.889643442622951	0.0275343985491527	0.220713114754098	-1	1	FALSE	-0.779286885245902	1	0.25	-0.345260531306214	7.2399305707397
0.25	an olympian	a thief	4	elaborate	1	35	1	burntHouse	simpleChoice	k	Right Item	7.88269220628903	N/A	-1	0.146745614035088	0.0319053408736065	0.293491228070175	1	0	TRUE	0.706508771929825	0	0.25	0.64276163554933	7.2399305707397
0.25	a celebrity	a terrorist	4	elaborate	1	29	1	serviceDog	simpleChoice	d	Left Item	8.63976474380442	N/A	-1	0.886209821428571	0.0287845886559777	0.227580357142857	1	1	TRUE	0.772419642857143	1	0.25	1.39983417306472	7.2399305707397
0.25	an elderly person	a thief	4	elaborate	1	42	1	serviceDog	simpleChoice	d	Left Item	7.82124208352356	N/A	-1	0.103538461538462	0.0266643883761814	0.207076923076923	1	1	TRUE	0.792923076923077	1	0.25	0.581311512783862	7.2399305707397
0.25	an elderly person	a thief	4	elaborate	1	56	1	surgery	simpleChoice	d	Left Item	6.93828448401696	N/A	-1	0.103538461538462	0.0266643883761814	0.207076923076923	1	1	TRUE	0.792923076923077	1	0.25	-0.301646086722736	7.2399305707397
0.25	an assassin	an astronaut	4	elaborate	1	90	1	hearingAids	simpleChoice	k	Right Item	6.82328612235569	N/A	-1	0.10252734375	0.0261639603978014	0.2050546875	-1	1	FALSE	-0.7949453125	1	0.25	-0.416644448384009	7.2399305707397
0.25	an assassin	a nun	4	elaborate	1	85	1	bucketList	simpleChoice	k	Right Item	6.93925394604151	N/A	-1	0.872834645669291	0.028078033248899	0.254330708661417	-1	1	FALSE	-0.745669291338583	1	0.25	-0.300676624698188	7.2399305707397
0.25	a gang member	a father	4	elaborate	1	22	1	counseling	simpleChoice	d	Left Item	7.01301578963963	N/A	-1	0.899215163934426	0.0186423920196408	0.201569672131148	-1	0	FALSE	-0.798430327868852	0	0.25	-0.226914781100065	7.2399305707397
0.25	a mentor	a gang member	4	elaborate	1	23	1	burntHouse	simpleChoice	d	Left Item	6.74051935960622	N/A	-1	0.131782786885246	0.0294519664657941	0.263565573770492	1	1	TRUE	0.736434426229508	1	0.25	-0.499411211133473	7.2399305707397
0.25	a mentor	a gang member	4	elaborate	1	49	1	surgery	simpleChoice	d	Left Item	6.74641212857337	N/A	-1	0.131782786885246	0.0294519664657941	0.263565573770492	1	1	TRUE	0.736434426229508	1	0.25	-0.493518442166321	7.2399305707397
0.25	a gang member	a teacher	4	elaborate	1	30	1	paralysis	simpleChoice	k	Right Item	6.77078942390898	N/A	-1	0.131493827160494	0.0213207382980793	0.262987654320988	-1	1	FALSE	-0.737012345679012	1	0.25	-0.469141146830716	7.2399305707397
0.35	a mother	a congressman	4	elaborate	1	46	1	legalFees	simpleChoice	d	Left Item	6.89060912014717	N/A	-1	0.185957446808511	0.024680902472485	0.371914893617021	1	1	TRUE	0.628085106382979	1	0.35	-0.349321450592529	7.2399305707397
0.35	a nun	a thief	4	elaborate	1	14	1	surgery	simpleChoice	d	Left Item	6.87523208727658	N/A	-1	0.842186991869919	0.0319327052898709	0.315626016260163	1	1	TRUE	0.684373983739837	1	0.35	-0.364698483459915	7.23993057073649
0.35	a convict	a mentor	4	elaborate	1	27	1	medicalTreatment	simpleChoice	k	Right Item	7.04141166379481	N/A	-1	0.174175572519084	0.0317875935140294	0.348351145038168	-1	1	FALSE	-0.651648854961832	1	0.35	-0.198518906944885	7.2399305707397
0.35	a thief	a judge	4	elaborate	1	41	1	counseling	simpleChoice	d	Left Item	6.93342302573071	N/A	-1	0.8475125	0.0313983634725846	0.304975	-1	0	FALSE	-0.695025	0	0.35	-0.306507545008981	7.2399305707397
0.35	an olympian	a gang member	4	elaborate	1	6	1	paralysis	simpleChoice	d	Left Item	7.20711885620776	N/A	-1	0.167315789473684	0.0340352895845191	0.334631578947368	1	1	TRUE	0.665368421052632	1	0.35	-0.0327887176628847	7.23990757387064
0.35	an adult	a convict	4	elaborate	1	82	1	surgery	simpleChoice	d	Left Item	6.98193467715639	N/A	-1	0.18879296875	0.0333141922622296	0.3775859375	1	1	TRUE	0.6224140625	1	0.35	-0.257995893583307	7.2399305707397
0.35	an addict	a pedophile	4	elaborate	1	44	1	physicalTherapy	simpleChoice	d	Left Item	7.39694860262101	N/A	-1	0.15098347107438	0.0301176113866207	0.30196694214876	1	1	TRUE	0.69803305785124	1	0.35	0.157018031881318	7.2399305707397
0.35	a police officer	a convict	4	elaborate	1	57	1	bucketList	simpleChoice	d	Left Item	7.26403014289953	N/A	-1	0.188992753623188	0.0315803485877791	0.377985507246377	1	1	TRUE	0.622014492753623	1	0.35	0.0240995721598338	7.2399305707397
0.45	a congressman	an assassin	4	elaborate	1	71	1	bucketList	simpleChoice	d	Left Item	6.95081476844258	N/A	-1	0.789064655172414	0.0358355731321318	0.421870689655172	1	1	TRUE	0.578129310344828	1	0.45	-0.289115802297112	7.2399305707397
0.45	an addict	a police officer	4	elaborate	1	43	1	medicalTreatment	simpleChoice	k	Right Item	7.68156036255954	N/A	-1	0.758376984126984	0.0376655604080243	0.483246031746032	-1	1	FALSE	-0.516753968253968	1	0.45	0.441629791819842	7.2399305707397
0.45	a police officer	an addict	4	elaborate	1	2	1	burntHouse	simpleChoice	d	Left Item	6.90475076996184	N/A	-1	0.758376984126984	0.0376655604080243	0.483246031746032	1	1	TRUE	0.516753968253968	1	0.45	-0.273570362046788	7.17832113200863
0.45	a celebrity	a gang member	4	elaborate	1	62	1	counseling	simpleChoice	k	Right Item	7.1777824161952	N/A	-1	0.763004464285714	0.037926361449386	0.473991071428571	1	0	TRUE	0.526008928571429	0	0.45	-0.0621481545444986	7.2399305707397
0.45	a convict	an olympian	4	elaborate	1	32	1	physicalTherapy	simpleChoice	k	Right Item	7.27309259599952	N/A	-1	0.210772357723577	0.0380499780740398	0.421544715447155	-1	1	FALSE	-0.578455284552845	1	0.45	0.0331620252598261	7.2399305707397
0.45	a gang member	a celebrity	4	elaborate	1	51	1	counseling	simpleChoice	d	Left Item	6.93244789157251	N/A	-1	0.763004464285714	0.037926361449386	0.473991071428571	-1	0	FALSE	-0.526008928571429	0	0.45	-0.307482679167187	7.2399305707397
0.45	a father	a celebrity	4	elaborate	1	67	1	serviceDog	simpleChoice	d	Left Item	6.78445706263764	N/A	-1	0.246485232067511	0.0271877432101647	0.492970464135021	1	1	TRUE	0.507029535864979	1	0.45	-0.455473508102052	7.2399305707397
0.45	an addict	an adult	4	elaborate	1	80	1	serviceDog	simpleChoice	k	Right Item	7.52886925664225	N/A	-1	0.24951724137931	0.0390802732240978	0.499034482758621	-1	1	FALSE	-0.500965517241379	1	0.45	0.288938685902555	7.2399305707397
0.55	an elderly person	a congressman	4	elaborate	1	79	1	counseling	simpleChoice	k	Right Item	8.22469956196723	N/A	-1	0.29051376146789	0.040791360904219	0.58102752293578	1	0	TRUE	0.41897247706422	0	0.55	0.984768991227539	7.2399305707397
0.55	a gang member	a pedophile	4	elaborate	1	48	1	burntHouse	simpleChoice	d	Left Item	7.42297125104942	N/A	-1	0.739467479674797	0.0351200128286331	0.521065040650406	1	1	TRUE	0.478934959349594	1	0.55	0.183040680309725	7.2399305707397
0.55	a father	a judge	4	elaborate	1	33	1	serviceDog	simpleChoice	d	Left Item	6.89871453432999	N/A	-1	0.730229508196721	0.0278426761038502	0.539540983606557	1	1	TRUE	0.460459016393443	1	0.55	-0.341216036409707	7.2399305707397
0.55	an olympian	an addict	4	elaborate	1	75	1	serviceDog	simpleChoice	d	Left Item	7.80994708647679	N/A	-1	0.290084821428571	0.0400919726992387	0.580169642857143	1	1	TRUE	0.419830357142857	1	0.55	0.570016515737095	7.2399305707397
0.55	an astronaut	a mother	4	elaborate	1	21	1	paralysis	simpleChoice	k	Right Item	6.92165818415113	N/A	-1	0.744135627530364	0.0278082032095273	0.511728744939271	-1	1	FALSE	-0.488271255060729	1	0.55	-0.318272386588567	7.2399305707397
0.55	a judge	a father	4	elaborate	1	78	1	hearingAids	simpleChoice	k	Right Item	6.7900972355139	N/A	-1	0.730229508196721	0.0278426761038502	0.539540983606557	-1	1	FALSE	-0.460459016393443	1	0.55	-0.449833335225791	7.2399305707397
0.65	a thief	an addict	4	elaborate	1	10	1	serviceDog	simpleChoice	k	Right Item	7.76726399675731	N/A	-1	0.317623931623932	0.0413684773170279	0.635247863247863	-1	1	FALSE	-0.364752136752137	1	0.65	0.527333434601621	7.23993056215569
0.65	a congressman	a convict	4	elaborate	1	55	1	bucketList	simpleChoice	d	Left Item	6.91869521902047	N/A	-1	0.675	0.0418244426887968	0.65	1	1	TRUE	0.35	1	0.65	-0.321235351719224	7.2399305707397
0.65	an astronaut	a soldier	4	elaborate	1	39	1	bucketList	simpleChoice	k	Right Item	7.18614430452233	N/A	-1	0.654556	0.0415574046576766	0.690888	-1	1	FALSE	-0.309112	1	0.65	-0.0537862662173705	7.2399305707397
0.65	a mother	a teacher	4	elaborate	1	68	1	counseling	simpleChoice	d	Left Item	7.6434829070772	N/A	-1	0.695286103542234	0.0235468349366754	0.609427792915531	1	1	TRUE	0.390572207084469	1	0.65	0.403552336337505	7.2399305707397
0.65	a mother	a police officer	4	elaborate	1	52	1	physicalTherapy	simpleChoice	k	Right Item	7.66669020008009	N/A	-1	0.690904761904762	0.028146964743329	0.618190476190476	1	0	TRUE	0.381809523809524	0	0.65	0.42675962934039	7.2399305707397
0.65	a nun	an elderly person	4	elaborate	1	7	1	serviceDog	simpleChoice	d	Left Item	7.02197642307216	N/A	-1	0.347395833333333	0.0422852758649112	0.694791666666667	-1	0	FALSE	-0.305208333333333	0	0.65	-0.217950951172183	7.23992737424434
0.65	an addict	a nun	4	elaborate	1	60	1	legalFees	simpleChoice	k	Right Item	6.85435450225502	N/A	-1	0.6948125	0.041340686597353	0.610375	-1	1	FALSE	-0.389625	1	0.65	-0.385576068484674	7.2399305707397
0.65	a thief	a terrorist	4	elaborate	1	45	1	surgery	simpleChoice	d	Left Item	7.71957398925958	N/A	-1	0.348201680672269	0.0404738559235265	0.696403361344538	1	1	TRUE	0.303596638655462	1	0.65	0.479643418519886	7.2399305707397
0.65	a congressman	a convict	4	elaborate	1	88	1	serviceDog	simpleChoice	d	Left Item	8.89562962713648	N/A	-1	0.675	0.0418244426887968	0.65	1	1	TRUE	0.35	1	0.65	1.65569905639679	7.2399305707397
0.75	an astronaut	an elderly person	4	elaborate	1	83	1	paralysis	simpleChoice	k	Right Item	7.28824440102012	N/A	-1	0.392727272727273	0.0446183393423852	0.785454545454546	-1	1	FALSE	-0.214545454545454	1	0.75	0.0483138302804287	7.2399305707397
0.75	an elderly person	a mother	4	elaborate	1	3	1	physicalTherapy	simpleChoice	d	Left Item	8.22496747891458	N/A	-1	0.63441908713693	0.0294574758384627	0.731161825726141	-1	0	FALSE	-0.268838174273859	0	0.75	0.993600434109853	7.23136704480473
0.75	a nun	a teacher	4	elaborate	1	13	1	serviceDog	simpleChoice	k	Right Item	8.02191277898571	N/A	-1	0.389686234817814	0.0300168954029765	0.779372469635628	-1	1	FALSE	-0.220627530364372	1	0.75	0.781982208269064	7.23993057071664
0.75	a celebrity	an adult	4	elaborate	1	66	1	hearingAids	simpleChoice	k	Right Item	7.29097477814298	N/A	-1	0.386504464285714	0.0448626415839987	0.773008928571429	-1	1	FALSE	-0.226991071428571	1	0.75	0.0510442074032857	7.2399305707397
0.75	an astronaut	a congressman	4	elaborate	1	72	1	bucketList	simpleChoice	d	Left Item	7.14598446771439	N/A	-1	0.368265217391304	0.0429104232502564	0.736530434782609	1	1	TRUE	0.263469565217391	1	0.75	-0.0939461030253081	7.2399305707397
0.75	a soldier	an adult	4	elaborate	1	58	1	serviceDog	simpleChoice	d	Left Item	6.68210859744981	N/A	-1	0.613325	0.0426279657373813	0.77335	1	1	TRUE	0.22665	1	0.75	-0.557821973289887	7.2399305707397
0.75	a judge	an elderly person	4	elaborate	1	25	1	surgery	simpleChoice	k	Right Item	6.87523208727658	N/A	-1	0.363935897435897	0.0430090288293073	0.727871794871795	-1	1	FALSE	-0.272128205128205	1	0.75	-0.364698483463119	7.2399305707397
0.75	a celebrity	a police officer	4	elaborate	1	84	1	legalFees	simpleChoice	k	Right Item	6.82001636467413	N/A	-1	0.375532786885246	0.0424773922437515	0.751065573770492	-1	1	FALSE	-0.248934426229508	1	0.75	-0.419914206065566	7.2399305707397
0.85	a judge	an adult	4	elaborate	1	59	1	counseling	simpleChoice	k	Right Item	7.8336002236611	N/A	-1	0.434831932773109	0.0422608595060235	0.869663865546218	-1	1	FALSE	-0.130336134453782	1	0.85	0.593669652921408	7.2399305707397
0.85	a terrorist	an assassin	4	elaborate	1	15	1	medicalTreatment	simpleChoice	k	Right Item	8.74909824839902	N/A	-1	0.405181451612903	0.0399278719381855	0.810362903225806	-1	1	FALSE	-0.189637096774194	1	0.85	1.50916767765977	7.23993057073925
0.85	a congressman	a judge	4	elaborate	1	18	1	medicalTreatment	simpleChoice	k	Right Item	7.62364194651157	N/A	-1	0.400878378378378	0.0454197580377783	0.801756756756757	-1	1	FALSE	-0.198243243243243	1	0.85	0.383711375771877	7.23993057073969
0.85	a police officer	a soldier	4	elaborate	1	36	1	surgery	simpleChoice	k	Right Item	7.10578612948127	N/A	-1	0.402773076923077	0.0417230297392088	0.805546153846154	-1	1	FALSE	-0.194453846153846	1	0.85	-0.134144441258425	7.2399305707397
0.85	a mentor	a judge	4	elaborate	1	1	1	bucketList	simpleChoice	d	Left Item	6.81563999007433	N/A	-1	0.415024590163934	0.042140828401343	0.830049180327869	1	1	TRUE	0.169950819672131	1	0.85	0.0189524210589296	6.7966875690154
0.85	a father	a soldier	4	elaborate	1	81	1	serviceDog	simpleChoice	k	Right Item	6.78558764500793	N/A	-1	0.564726530612245	0.0319186516740532	0.87054693877551	1	0	TRUE	0.12945306122449	0	0.85	-0.454342925731766	7.2399305707397
0.85	a celebrity	an astronaut	4	elaborate	1	5	1	physicalTherapy	simpleChoice	k	Right Item	7.26262860097424	N/A	-1	0.412175213675214	0.0449714276746044	0.824350427350427	-1	1	FALSE	-0.175649572649573	1	0.85	0.022863478930077	7.23976512204416
0.85	a father	an elderly person	4	elaborate	1	11	1	burntHouse	simpleChoice	d	Left Item	6.96602418710611	N/A	-1	0.599123966942149	0.0309663846768362	0.801752066115702	1	1	TRUE	0.198247933884298	1	0.85	-0.273906382440432	7.23993056954654
0.85	a police officer	a soldier	4	elaborate	1	37	1	burntHouse	simpleChoice	k	Right Item	7.23633934275434	N/A	-1	0.402773076923077	0.0417230297392088	0.805546153846154	-1	1	FALSE	-0.194453846153846	1	0.85	-0.00359122798535161	7.2399305707397
0.85	a nun	a congressman	4	elaborate	1	38	1	legalFees	simpleChoice	d	Left Item	7.71154897962915	N/A	-1	0.411561403508772	0.0436997912168078	0.823122807017544	1	1	TRUE	0.176877192982456	1	0.85	0.471618408889451	7.2399305707397
0.85	an olympian	a police officer	4	elaborate	1	87	1	bucketList	simpleChoice	k	Right Item	7.86518795418747	N/A	-1	0.583369918699187	0.0420673795181684	0.833260162601626	-1	1	FALSE	-0.166739837398374	1	0.85	0.625257383447772	7.2399305707397
0.85	a nun	a congressman	4	elaborate	1	47	1	surgery	simpleChoice	d	Left Item	6.85540879860993	N/A	-1	0.411561403508772	0.0436997912168078	0.823122807017544	1	1	TRUE	0.176877192982456	1	0.85	-0.384521772129768	7.2399305707397
0.85	a thief	a convict	4	elaborate	1	69	1	burntHouse	simpleChoice	d	Left Item	7.92732436030979	N/A	-1	0.584213178294574	0.0410579625640592	0.831573643410853	-1	0	FALSE	-0.168426356589147	0	0.85	0.687393789570098	7.2399305707397
0.85	an addict	a convict	4	elaborate	1	63	1	legalFees	simpleChoice	d	Left Item	7.59287028784482	N/A	-1	0.405380952380952	0.0429919688162908	0.810761904761905	1	1	TRUE	0.189238095238095	1	0.85	0.352939717105122	7.2399305707397
0.85	a thief	a convict	4	elaborate	1	31	1	serviceDog	simpleChoice	k	Right Item	7.98173328669189	N/A	-1	0.584213178294574	0.0410579625640592	0.831573643410853	-1	1	FALSE	-0.168426356589147	1	0.85	0.74180271595219	7.2399305707397
0.85	an adult	an olympian	4	elaborate	1	19	1	burntHouse	simpleChoice	d	Left Item	7.75876054415766	N/A	-1	0.570606194690266	0.0466541092224522	0.858787610619469	1	1	TRUE	0.141212389380531	1	0.85	0.518829973417967	7.2399305707397
0.85	a celebrity	an astronaut	4	elaborate	1	24	1	burntHouse	simpleChoice	k	Right Item	7.1276936993474	N/A	-1	0.412175213675214	0.0449714276746044	0.824350427350427	-1	1	FALSE	-0.175649572649573	1	0.85	-0.112236871392297	7.2399305707397
0.85	an adult	an elderly person	4	elaborate	1	20	1	physicalTherapy	simpleChoice	k	Right Item	6.98933526597456	N/A	-1	0.427711206896552	0.044748840679782	0.855422413793103	-1	1	FALSE	-0.144577586206897	1	0.85	-0.250595304765135	7.2399305707397
0.85	a nun	a mentor	4	elaborate	1	16	1	serviceDog	simpleChoice	d	Left Item	7.08506429395255	N/A	-1	0.59782	0.0419068942751403	0.80436	-1	0	FALSE	-0.19564	0	0.85	-0.154866276787086	7.23993057073963
0.85	a judge	a celebrity	4	elaborate	1	95	1	hearingAids	simpleChoice	d	Left Item	6.94215670569947	N/A	-1	0.443433628318584	0.0452830392870937	0.886867256637168	1	1	TRUE	0.113132743362832	1	0.85	-0.297773865040226	7.2399305707397
0.95	a congressman	a celebrity	4	elaborate	1	9	1	physicalTherapy	simpleChoice	d	Left Item	7.04053639021596	N/A	-1	0.542870192307692	0.0479695109403884	0.914259615384615	-1	0	FALSE	-0.085740384615385	0	0.95	-0.199394118766937	7.23993050898289
0.95	a judge	an astronaut	4	elaborate	1	93	1	paralysis	simpleChoice	d	Left Item	7.2283884515736	N/A	-1	0.460483870967742	0.042928181663263	0.920967741935484	-1	0	FALSE	-0.079032258064516	0	0.95	-0.0115421191660916	7.2399305707397
0.95	an adult	a mentor	4	elaborate	1	92	1	physicalTherapy	simpleChoice	k	Right Item	7.0604763659998	N/A	-1	0.516272727272727	0.0445419942127882	0.967454545454546	-1	1	FALSE	-0.032545454545454	1	0.95	-0.179454204739895	7.2399305707397
0.95	an adult	a teacher	4	elaborate	1	89	1	paralysis	simpleChoice	k	Right Item	7.96519829061218	N/A	-1	0.523897119341564	0.0303180843002207	0.952205761316872	-1	1	FALSE	-0.047794238683128	1	0.95	0.72526771987248	7.2399305707397
0.95	an astronaut	an adult	4	elaborate	1	91	1	medicalTreatment	simpleChoice	d	Left Item	6.68085467879022	N/A	-1	0.536056910569106	0.0441780735364672	0.927886178861789	-1	0	FALSE	-0.072113821138211	0	0.95	-0.55907589194948	7.2399305707397
0.05	a teacher	a terrorist	19	elaborate	1	61	1	bucketList	simpleChoice	d	Left Item	6.76041469108343	N/A	-1	0.956987654320988	0.0127603944038782	0.0860246913580247	1	1	TRUE	0.913975308641975	1	0.05	-0.616547886265929	7.37696257734936
0.05	a mentor	a pedophile	19	elaborate	1	36	1	surgery	simpleChoice	d	Left Item	7.09837563859079	N/A	-1	0.965047619047619	0.0157018513378845	0.0699047619047619	1	1	TRUE	0.930095238095238	1	0.05	-0.279421595244822	7.37779723383561
0.05	a rapist	a mother	19	elaborate	1	66	1	counseling	simpleChoice	d	Left Item	7.56112158953024	N/A	-1	0.970038	0.0103945467723515	0.0599240000000001	-1	0	FALSE	-0.940076	0	0.05	0.184325932146743	7.37679565738349
0.05	a mother	a rapist	19	elaborate	1	87	1	medicalTreatment	simpleChoice	d	Left Item	6.74993119378857	N/A	-1	0.970038	0.0103945467723515	0.0599240000000001	1	1	TRUE	0.940076	1	0.05	-0.626163440981395	7.37609463476997
0.05	a rapist	an elderly person	19	elaborate	1	3	1	hearingAids	simpleChoice	k	Right Item	6.95463886488099	N/A	-1	0.0482258064516129	0.0176655216583874	0.0964516129032258	-1	1	FALSE	-0.903548387096774	1	0.05	-0.424260260118751	7.37889912499974
0.15	a rapist	an astronaut	19	elaborate	1	31	1	serviceDog	simpleChoice	k	Right Item	7.47079377419506	N/A	-1	0.0574269230769231	0.019607928156392	0.114853846153846	-1	1	FALSE	-0.885146153846154	1	0.15	0.0928295977302147	7.37796417646485
0.15	a police officer	a rapist	19	elaborate	1	16	1	legalFees	simpleChoice	d	Left Item	6.98193467715639	N/A	-1	0.942292592592593	0.0200015786769275	0.115414814814815	1	1	TRUE	0.884585185185185	1	0.15	-0.396530349861689	7.37846502701808
0.15	a soldier	an assassin	19	elaborate	1	15	1	bucketList	simpleChoice	d	Left Item	7.0604763659998	N/A	-1	0.928784	0.0223752988359485	0.142432	1	1	TRUE	0.857568	1	0.15	-0.318022052264025	7.37849841826383
0.15	a pedophile	a nun	19	elaborate	1	88	1	bucketList	simpleChoice	k	Right Item	7.00488198971286	N/A	-1	0.94946062992126	0.0188604376229214	0.10107874015748	-1	1	FALSE	-0.89892125984252	1	0.15	-0.371179264689633	7.37606125440249
0.15	an assassin	an elderly person	19	elaborate	1	84	1	paralysis	simpleChoice	k	Right Item	7.54274354536855	N/A	-1	0.0856393442622951	0.0251843995334413	0.17127868852459	-1	1	FALSE	-0.82872131147541	1	0.15	0.166548768589783	7.37619477677877
0.15	a thief	a father	19	elaborate	1	25	1	paralysis	simpleChoice	k	Right Item	7.00306545878646	N/A	-1	0.927987704918033	0.0156861284015264	0.144024590163934	-1	1	FALSE	-0.855975409836066	1	0.15	-0.375099053819818	7.37816451260628
0.15	a nun	a terrorist	19	elaborate	1	58	1	physicalTherapy	simpleChoice	d	Left Item	6.84374994900622	N/A	-1	0.935004098360656	0.0209454852869902	0.129991803278688	1	1	TRUE	0.870008196721312	1	0.15	-0.53331278213561	7.37706273114183
0.15	a judge	a rapist	19	elaborate	1	56	1	paralysis	simpleChoice	d	Left Item	7.43425738213314	N/A	-1	0.936230158730159	0.0218179385991741	0.127539682539683	1	1	TRUE	0.872460317460317	1	0.15	0.0571278810409028	7.37712950109223
0.15	an assassin	a father	19	elaborate	1	10	1	surgery	simpleChoice	k	Right Item	6.97260625130175	N/A	-1	0.935132530120482	0.0143498663838322	0.129734939759036	-1	1	FALSE	-0.870265060240964	1	0.15	-0.406059125457507	7.37866537675926
0.15	a pedophile	a nun	19	elaborate	1	13	1	surgery	simpleChoice	k	Right Item	6.69950034016168	N/A	-1	0.94946062992126	0.0188604376229214	0.10107874015748	-1	1	FALSE	-0.89892125984252	1	0.15	-0.679064861046981	7.37856520120866
0.15	a nun	a terrorist	19	elaborate	1	86	1	bucketList	simpleChoice	d	Left Item	7.02908756414966	N/A	-1	0.935004098360656	0.0209454852869902	0.129991803278688	1	1	TRUE	0.870008196721312	1	0.15	-0.347040451138841	7.3761280152885
0.15	an assassin	a father	19	elaborate	1	69	1	hearingAids	simpleChoice	k	Right Item	6.87109129461055	N/A	-1	0.935132530120482	0.0143498663838322	0.129734939759036	-1	1	FALSE	-0.870265060240964	1	0.15	-0.505604212606365	7.37669550721691
0.15	a police officer	a rapist	19	elaborate	1	94	1	medicalTreatment	simpleChoice	d	Left Item	6.85540879860993	N/A	-1	0.942292592592593	0.0200015786769275	0.115414814814815	1	1	TRUE	0.884585185185185	1	0.15	-0.520452176760001	7.37586097536993
0.15	a terrorist	an olympian	19	elaborate	1	82	1	legalFees	simpleChoice	k	Right Item	7.24992553671799	N/A	-1	0.058890350877193	0.0206787431113388	0.117780701754386	-1	1	FALSE	-0.882219298245614	1	0.15	-0.126336002155305	7.37626153887329
0.15	a judge	a rapist	19	elaborate	1	43	1	hearingAids	simpleChoice	d	Left Item	7.30451594646016	N/A	-1	0.936230158730159	0.0218179385991741	0.127539682539683	1	1	TRUE	0.872460317460317	1	0.15	-0.073047574040606	7.37756352050076
0.15	a celebrity	a pedophile	19	elaborate	1	28	1	serviceDog	simpleChoice	k	Right Item	7.29505641646263	N/A	-1	0.906931623931624	0.0253602619704029	0.186136752136752	1	0	TRUE	0.813863247863248	0	0.15	-0.0830079273929689	7.3780643438556
0.25	a police officer	a thief	19	elaborate	1	92	1	paralysis	simpleChoice	d	Left Item	7.06646697013696	N/A	-1	0.871906976744186	0.028240572548127	0.256186046511628	1	1	TRUE	0.743813953488372	1	0.25	-0.309460764306253	7.37592773444321
0.25	an adult	a gang member	19	elaborate	1	52	1	medicalTreatment	simpleChoice	d	Left Item	7.46794233228585	N/A	-1	0.145584745762712	0.0309232327063681	0.291169491525424	1	1	TRUE	0.708830508474576	1	0.25	0.0906792894798087	7.37726304280604
0.25	a convict	a mother	19	elaborate	1	41	1	surgery	simpleChoice	k	Right Item	7.00488198971286	N/A	-1	0.104509920634921	0.0180547786630647	0.209019841269841	-1	1	FALSE	-0.790980158730159	1	0.25	-0.372748305270954	7.37763029498381
0.25	a police officer	an assassin	19	elaborate	1	6	1	legalFees	simpleChoice	d	Left Item	7.29505641646263	N/A	-1	0.893507518796993	0.026848284411785	0.212984962406015	1	1	TRUE	0.787015037593985	1	0.25	-0.0837425298130521	7.37879894627568
0.25	an addict	a father	19	elaborate	1	47	1	surgery	simpleChoice	k	Right Item	7.52833176670725	N/A	-1	0.855566115702479	0.0217853597292144	0.288867768595041	-1	1	FALSE	-0.711132231404959	1	0.25	0.150901793359483	7.37742997334776
0.25	a congressman	a pedophile	19	elaborate	1	1	1	bucketList	simpleChoice	d	Left Item	7.59387784460512	N/A	-1	0.892360869565217	0.027126699114983	0.215278260869565	1	1	TRUE	0.784721739130435	1	0.25	0.214911933033743	7.37896591157138
0.25	a soldier	a convict	19	elaborate	1	5	1	paralysis	simpleChoice	d	Left Item	7.68616230349291	N/A	-1	0.141180769230769	0.0304633558327537	0.282361538461538	1	1	TRUE	0.717638461538462	1	0.25	0.307329964460324	7.37883233903258
0.35	a gang member	an olympian	19	elaborate	1	89	1	bucketList	simpleChoice	k	Right Item	7.57660976697304	N/A	-1	0.167315789473684	0.0340352895845191	0.334631578947368	-1	1	FALSE	-0.665368421052632	1	0.35	0.200581892786958	7.37602787418608
0.35	a judge	a gang member	19	elaborate	1	63	1	legalFees	simpleChoice	k	Right Item	7.38461038317697	N/A	-1	0.173571428571429	0.0334410614495127	0.347142857142857	1	0	TRUE	0.652857142857143	0	0.35	0.00771457426719913	7.37689580890977
0.35	an assassin	a celebrity	19	elaborate	1	19	1	medicalTreatment	simpleChoice	k	Right Item	6.79794041297493	N/A	-1	0.818628205128205	0.0342154328304168	0.36274358974359	-1	1	FALSE	-0.63725641025641	1	0.35	-0.58042444121257	7.3783648541875
0.35	an adult	a convict	19	elaborate	1	59	1	physicalTherapy	simpleChoice	d	Left Item	6.91174730025167	N/A	-1	0.18879296875	0.0333141922622296	0.3775859375	1	1	TRUE	0.6224140625	1	0.35	-0.465282046141586	7.37702934639326
0.35	an addict	a terrorist	19	elaborate	1	78	1	paralysis	simpleChoice	d	Left Item	7.03790596344718	N/A	-1	0.18692735042735	0.0341446724899859	0.373854700854701	1	1	TRUE	0.626145299145299	1	0.35	-0.338489101427961	7.37639506487514
0.35	a gang member	a judge	19	elaborate	1	33	1	burntHouse	simpleChoice	d	Left Item	8.06934236681164	N/A	-1	0.173571428571429	0.0334410614495127	0.347142857142857	-1	0	FALSE	-0.652857142857143	0	0.35	0.691444967851782	7.37789739895985
0.35	a police officer	a convict	19	elaborate	1	65	1	medicalTreatment	simpleChoice	d	Left Item	7.40549566319947	N/A	-1	0.188992753623188	0.0315803485877791	0.377985507246377	1	1	TRUE	0.622014492753623	1	0.35	0.0286666221249616	7.37682904107451
0.35	a gang member	a police officer	19	elaborate	1	72	1	serviceDog	simpleChoice	k	Right Item	7.06646697013696	N/A	-1	0.153125	0.0313232297015759	0.30625	-1	1	FALSE	-0.69375	1	0.35	-0.310128388273045	7.37659535841
0.35	an addict	a terrorist	19	elaborate	1	24	1	counseling	simpleChoice	d	Left Item	6.880384082186	N/A	-1	0.18692735042735	0.0341446724899859	0.373854700854701	1	1	TRUE	0.626145299145299	1	0.35	-0.497813820306044	7.37819790249205
0.45	a mother	a judge	19	elaborate	1	77	1	hearingAids	simpleChoice	d	Left Item	7.13249755166004	N/A	-1	0.235028806584362	0.0261340479753418	0.470057613168724	1	1	TRUE	0.529942386831276	1	0.45	-0.243930895093232	7.37642844675328
0.45	a teacher	an addict	19	elaborate	1	27	1	medicalTreatment	simpleChoice	d	Left Item	7.48324441607385	N/A	-1	0.774126556016598	0.0268976374572695	0.451746887966805	1	1	TRUE	0.548253112033195	1	0.45	0.105146682785795	7.37809773328805
0.45	a thief	a celebrity	19	elaborate	1	76	1	surgery	simpleChoice	d	Left Item	7.28344822875663	N/A	-1	0.784300884955752	0.0366875917501536	0.431398230088496	-1	0	FALSE	-0.568601769911504	0	0.45	-0.0930136000258486	7.37646182878248
0.45	a mother	an olympian	19	elaborate	1	67	1	burntHouse	simpleChoice	d	Left Item	6.68461172766793	N/A	-1	0.769243697478992	0.0251376386929752	0.461512605042017	1	1	TRUE	0.538487394957983	1	0.45	-0.692150546175631	7.37676227384356
0.45	an addict	an elderly person	19	elaborate	1	12	1	hearingAids	simpleChoice	k	Right Item	7.4500795698075	N/A	-1	0.202895652173913	0.036041133599503	0.405791304347826	-1	1	FALSE	-0.594208695652174	1	0.45	0.0714809768997533	7.37859859290775
0.45	a pedophile	a convict	19	elaborate	1	32	1	counseling	simpleChoice	k	Right Item	7.49609734517596	N/A	-1	0.769706766917293	0.0325765544976973	0.460586466165414	-1	1	FALSE	-0.539413533834586	1	0.45	0.118166557539156	7.3779307876368
0.45	an assassin	a congressman	19	elaborate	1	23	1	serviceDog	simpleChoice	k	Right Item	7.81439963380449	N/A	-1	0.789064655172414	0.0358355731321318	0.421870689655172	-1	1	FALSE	-0.578129310344828	1	0.45	0.436168341275562	7.37823129252893
0.45	an olympian	a convict	19	elaborate	1	30	1	paralysis	simpleChoice	d	Left Item	7.67693714581808	N/A	-1	0.210772357723577	0.0380499780740398	0.421544715447155	1	1	TRUE	0.578455284552845	1	0.45	0.298939580374085	7.377997565444
0.45	a convict	an olympian	19	elaborate	1	37	1	hearingAids	simpleChoice	k	Right Item	8.01433573729942	N/A	-1	0.210772357723577	0.0380499780740398	0.421544715447155	-1	1	FALSE	-0.578455284552845	1	0.45	0.636571891536367	7.37776384576306
0.55	a gang member	a congressman	19	elaborate	1	40	1	counseling	simpleChoice	d	Left Item	7.86403565907245	N/A	-1	0.725797297297297	0.0420374210959715	0.548405405405405	-1	0	FALSE	-0.451594594594595	0	0.55	0.486371976620469	7.37766368245198
0.55	a mentor	a mother	19	elaborate	1	14	1	hearingAids	simpleChoice	k	Right Item	7.8336002236611	N/A	-1	0.295975609756098	0.0275578150866277	0.591951219512195	-1	1	FALSE	-0.408048780487805	1	0.55	0.455068414000418	7.37853180966069
0.55	a congressman	a gang member	19	elaborate	1	90	1	paralysis	simpleChoice	d	Left Item	7.64683139143048	N/A	-1	0.725797297297297	0.0420374210959715	0.548405405405405	1	1	TRUE	0.451594594594595	1	0.55	0.270836897309754	7.37599449412073
0.55	a convict	a celebrity	19	elaborate	1	62	1	counseling	simpleChoice	d	Left Item	6.99759598298193	N/A	-1	0.714077868852459	0.039615953190372	0.571844262295082	-1	0	FALSE	-0.428155737704918	0	0.55	-0.379333210072098	7.37692919305402
0.55	a mother	an astronaut	19	elaborate	1	83	1	burntHouse	simpleChoice	d	Left Item	6.90775527898214	N/A	-1	0.744135627530364	0.0278082032095273	0.511728744939271	1	1	TRUE	0.488271255060729	1	0.55	-0.468472878768361	7.3762281577505
0.55	a congressman	an elderly person	19	elaborate	1	48	1	burntHouse	simpleChoice	k	Right Item	7.10987946307227	N/A	-1	0.29051376146789	0.040791360904219	0.58102752293578	-1	1	FALSE	-0.41897247706422	1	0.55	-0.267517123864971	7.37739658693724
0.55	a gang member	a pedophile	19	elaborate	1	55	1	hearingAids	simpleChoice	d	Left Item	7.53743003658651	N/A	-1	0.739467479674797	0.0351200128286331	0.521065040650406	1	1	TRUE	0.478934959349594	1	0.55	0.160267150292451	7.37716288629406
0.55	an olympian	an addict	19	elaborate	1	85	1	medicalTreatment	simpleChoice	d	Left Item	7.82724090175281	N/A	-1	0.290084821428571	0.0400919726992387	0.580169642857143	1	1	TRUE	0.419830357142857	1	0.55	0.451079505794709	7.3761613959581
0.55	an adult	a mother	19	elaborate	1	53	1	counseling	simpleChoice	k	Right Item	7.74630066223144	N/A	-1	0.706698347107438	0.027931943502634	0.586603305785124	-1	1	FALSE	-0.413396694214876	1	0.55	0.369071005080477	7.37722965715096
0.55	a pedophile	a thief	19	elaborate	1	60	1	surgery	simpleChoice	k	Right Item	7.54908271081229	N/A	-1	0.297322580645161	0.0352578857665523	0.594645161290323	-1	1	FALSE	-0.405354838709677	1	0.55	0.172086749016518	7.37699596179577
0.65	a father	a mentor	19	elaborate	1	11	1	paralysis	simpleChoice	d	Left Item	6.96034772910131	N/A	-1	0.664404858299595	0.0284493885973402	0.67119028340081	1	1	TRUE	0.32880971659919	1	0.65	-0.418284255656637	7.37863198475794
0.65	a mother	a police officer	19	elaborate	1	68	1	bucketList	simpleChoice	d	Left Item	6.91671502035361	N/A	-1	0.690904761904762	0.028146964743329	0.618190476190476	1	1	TRUE	0.381809523809524	1	0.65	-0.460013870101087	7.3767288904547
0.65	an addict	a thief	19	elaborate	1	75	1	medicalTreatment	simpleChoice	d	Left Item	7.82284529027977	N/A	-1	0.317623931623932	0.0413684773170279	0.635247863247863	1	1	TRUE	0.364752136752137	1	0.65	0.44635007931702	7.37649521096275
0.65	a father	a teacher	19	elaborate	1	20	1	hearingAids	simpleChoice	d	Left Item	7.62608275807238	N/A	-1	0.658853260869565	0.0236128238843631	0.68229347826087	1	1	TRUE	0.31770652173913	1	0.65	0.247751294526186	7.37833146354619
0.65	a nun	a soldier	19	elaborate	1	51	1	physicalTherapy	simpleChoice	d	Left Item	7.19443685110033	N/A	-1	0.308895161290323	0.0416834134020061	0.617790322580645	-1	0	FALSE	-0.382209677419355	0	0.65	-0.182859577511876	7.37729642861221
0.65	a nun	an elderly person	19	elaborate	1	74	1	medicalTreatment	simpleChoice	k	Right Item	7.49443021503157	N/A	-1	0.347395833333333	0.0422852758649112	0.694791666666667	-1	1	FALSE	-0.305208333333333	1	0.65	0.117901621737468	7.3765285932941
0.65	a soldier	an astronaut	19	elaborate	1	80	1	legalFees	simpleChoice	d	Left Item	7.45818615734049	N/A	-1	0.654556	0.0415574046576766	0.690888	1	1	TRUE	0.309112	1	0.65	0.081857855768404	7.37632830157208
0.65	a congressman	a convict	19	elaborate	1	18	1	serviceDog	simpleChoice	d	Left Item	7.16239749735572	N/A	-1	0.675	0.0418244426887968	0.65	1	1	TRUE	0.35	1	0.65	-0.216000747624198	7.37839824497992
0.65	an addict	a nun	19	elaborate	1	26	1	serviceDog	simpleChoice	d	Left Item	7.52725591937378	N/A	-1	0.6948125	0.041340686597353	0.610375	-1	0	FALSE	-0.389625	0	0.65	0.149124796502169	7.37813112287161
0.65	a father	an adult	19	elaborate	1	71	1	physicalTherapy	simpleChoice	d	Left Item	7.67786350067821	N/A	-1	0.673685185185185	0.0292151855230065	0.65262962962963	1	1	TRUE	0.34737037037037	1	0.65	0.301234759483645	7.37662874119457
0.65	a soldier	an olympian	19	elaborate	1	17	1	surgery	simpleChoice	d	Left Item	7.74889133725553	N/A	-1	0.68304347826087	0.0424743746687976	0.633913043478261	1	1	TRUE	0.366086956521739	1	0.65	0.37045970133209	7.37843163592344
0.65	an addict	a gang member	19	elaborate	1	91	1	hearingAids	simpleChoice	d	Left Item	7.34018683532012	N/A	-1	0.347794871794872	0.042213942603222	0.695589743589744	1	1	TRUE	0.304410256410256	1	0.65	-0.0357742788863247	7.37596111420644
0.75	a nun	a teacher	19	elaborate	1	73	1	surgery	simpleChoice	d	Left Item	8.04590874227078	N/A	-1	0.389686234817814	0.0300168954029765	0.779372469635628	-1	0	FALSE	-0.220627530364372	0	0.75	0.669346766494265	7.37656197577651
0.75	a mentor	a soldier	19	elaborate	1	7	1	surgery	simpleChoice	d	Left Item	6.87935580446044	N/A	-1	0.394768292682927	0.0425642696151299	0.789536585365854	-1	0	FALSE	-0.210463414634146	0	0.75	-0.499409749209462	7.3787655536699
0.75	a mentor	a celebrity	19	elaborate	1	35	1	legalFees	simpleChoice	d	Left Item	7.01481435127554	N/A	-1	0.371073913043478	0.044447692351678	0.742147826086957	1	1	TRUE	0.257852173913043	1	0.75	-0.363016270783714	7.37783062205926
0.85	an elderly person	a mentor	19	elaborate	1	46	1	counseling	simpleChoice	d	Left Item	8.14351740579748	N/A	-1	0.439920833333333	0.0440507934035565	0.879841666666667	1	1	TRUE	0.120158333333333	1	0.85	0.766054045888104	7.37746335990938
0.85	an elderly person	a mentor	19	elaborate	1	2	1	serviceDog	simpleChoice	d	Left Item	7.2283884515736	N/A	-1	0.439920833333333	0.0440507934035565	0.879841666666667	1	1	TRUE	0.120158333333333	1	0.85	-0.150544066636392	7.37893251821
0.85	a convict	a thief	19	elaborate	1	38	1	paralysis	simpleChoice	k	Right Item	7.87929148508227	N/A	-1	0.584213178294574	0.0410579625640592	0.831573643410853	1	0	TRUE	0.168426356589147	0	0.85	0.501561027240669	7.3777304578416
0.85	a convict	an addict	19	elaborate	1	64	1	burntHouse	simpleChoice	k	Right Item	7.78197323443438	N/A	-1	0.405380952380952	0.0429919688162908	0.810761904761905	-1	1	FALSE	-0.189238095238095	1	0.85	0.405110809517781	7.3768624249166
0.85	a nun	an astronaut	19	elaborate	1	34	1	serviceDog	simpleChoice	d	Left Item	7.09340462586877	N/A	-1	0.443023622047244	0.043270207993225	0.886047244094488	-1	0	FALSE	-0.113952755905512	0	0.85	-0.28445938456524	7.37786401043401
0.85	a congressman	an olympian	19	elaborate	1	57	1	bucketList	simpleChoice	d	Left Item	7.2152399787301	N/A	-1	0.400316037735849	0.0461693703941909	0.800632075471698	-1	0	FALSE	-0.199367924528302	0	0.85	-0.161856137311394	7.37709611604149
0.85	a teacher	an astronaut	19	elaborate	1	44	1	paralysis	simpleChoice	d	Left Item	7.0352685992811	N/A	-1	0.562221774193548	0.0308279750300841	0.875556451612903	1	1	TRUE	0.124443548387097	1	0.85	-0.342261534204776	7.37753013348587
0.85	a convict	a thief	19	elaborate	1	81	1	legalFees	simpleChoice	d	Left Item	8.10016144693661	N/A	-1	0.584213178294574	0.0410579625640592	0.831573643410853	1	1	TRUE	0.168426356589147	1	0.85	0.723866526789453	7.37629492014715
0.85	an elderly person	an adult	19	elaborate	1	9	1	burntHouse	simpleChoice	d	Left Item	7.40853056689463	N/A	-1	0.427711206896552	0.044748840679782	0.855422413793103	1	1	TRUE	0.144577586206897	1	0.85	0.0298317979829363	7.37869876891169
0.85	a judge	a teacher	19	elaborate	1	4	1	legalFees	simpleChoice	k	Right Item	7.01571242048723	N/A	-1	0.405801229508197	0.0297730555758943	0.811602459016393	-1	1	FALSE	-0.188397540983607	1	0.85	-0.36315331145337	7.3788657319406
0.85	an olympian	a police officer	19	elaborate	1	29	1	surgery	simpleChoice	k	Right Item	7.36454701425564	N/A	-1	0.583369918699187	0.0420673795181684	0.833260162601626	-1	1	FALSE	-0.166739837398374	1	0.85	-0.0134839403186042	7.37803095457425
0.85	a congressman	a nun	19	elaborate	1	49	1	surgery	simpleChoice	k	Right Item	7.00488198971286	N/A	-1	0.411561403508772	0.0436997912168078	0.823122807017544	-1	1	FALSE	-0.176877192982456	1	0.85	-0.372481210964951	7.37736320067781
0.85	a judge	a celebrity	19	elaborate	1	42	1	physicalTherapy	simpleChoice	d	Left Item	7.21081845347222	N/A	-1	0.443433628318584	0.0452830392870937	0.886867256637168	1	1	TRUE	0.113132743362832	1	0.85	-0.16677845419452	7.37759690766674
0.85	a judge	a congressman	19	elaborate	1	22	1	legalFees	simpleChoice	d	Left Item	8.20603776277881	N/A	-1	0.400878378378378	0.0454197580377783	0.801756756756757	1	1	TRUE	0.198243243243243	1	0.85	0.827773080061908	7.37826468271691
0.85	a police officer	a soldier	19	elaborate	1	79	1	legalFees	simpleChoice	d	Left Item	7.99260665240021	N/A	-1	0.402773076923077	0.0417230297392088	0.805546153846154	-1	0	FALSE	-0.194453846153846	0	0.85	0.616244969252131	7.37636168314808
0.85	a pedophile	a terrorist	19	elaborate	1	45	1	legalFees	simpleChoice	d	Left Item	7.86518795418747	N/A	-1	0.447727642276423	0.0377645174064567	0.895455284552846	-1	0	FALSE	-0.104544715447154	0	0.85	0.487691207565388	7.37749674662208
0.95	a mentor	a teacher	19	elaborate	1	93	1	physicalTherapy	simpleChoice	k	Right Item	7.61972421378267	N/A	-1	0.488878048780488	0.0299370414899347	0.977756097560976	-1	1	FALSE	-0.022243902439024	1	0.95	0.243829858951631	7.37589435483104
0.95	a gang member	a thief	19	elaborate	1	21	1	bucketList	simpleChoice	d	Left Item	8.11192806331074	N/A	-1	0.53527731092437	0.0427149012346878	0.929445378151261	1	1	TRUE	0.070554621848739	1	0.95	0.733629990254742	7.378298073056
0.95	an olympian	an astronaut	19	elaborate	1	54	1	burntHouse	simpleChoice	k	Right Item	7.76089319585102	N/A	-1	0.541953389830508	0.0451299306109729	0.916093220338983	-1	1	FALSE	-0.083906779661017	1	0.95	0.383696924204057	7.37719627164697
0.95	a teacher	an adult	19	elaborate	1	70	1	paralysis	simpleChoice	d	Left Item	7.29097477814298	N/A	-1	0.523897119341564	0.0303180843002207	0.952205761316872	1	1	TRUE	0.047794238683128	1	0.95	-0.0856873459872194	7.3766621241302
0.95	a police officer	a mentor	19	elaborate	1	8	1	serviceDog	simpleChoice	k	Right Item	7.46221493976819	N/A	-1	0.498351145038168	0.0437469765113986	0.996702290076336	1	0	TRUE	0.00329770992366396	0	0.95	0.0834827785529519	7.37873216121524
0.95	a rapist	a pedophile	19	elaborate	1	50	1	burntHouse	simpleChoice	k	Right Item	8.3719361787591	N/A	-1	0.485915384615385	0.0356411328316191	0.971830769230769	1	0	TRUE	0.0281692307692309	0	0.95	0.994606364189632	7.37732981456947
0.95	an olympian	a judge	19	elaborate	1	39	1	serviceDog	simpleChoice	k	Right Item	7.87169266432365	N/A	-1	0.501	0.0446593101154506	0.998	-1	1	FALSE	-0.002	1	0.95	0.493995594252401	7.37769707007124
0.05	a pedophile	a teacher	67	elaborate	1	87	1	medicalTreatment	simpleChoice	k	Right Item	6.63856778916652	N/A	-1	0.037125	0.0115989117000102	0.07425	-1	1	FALSE	-0.92575	1	0.05	-0.629284822965333	7.26785261213185
0.05	a pedophile	a father	67	elaborate	1	70	1	counseling	simpleChoice	k	Right Item	6.68710860786651	N/A	-1	0.967479838709677	0.010670087262182	0.0650403225806451	-1	1	FALSE	-0.934959677419355	1	0.05	-0.580744004265338	7.26785261213185
0.05	a mother	a terrorist	67	elaborate	1	93	1	counseling	simpleChoice	d	Left Item	7.00488198971286	N/A	-1	0.978148148148148	0.00886737512639762	0.0437037037037038	1	1	TRUE	0.956296296296296	1	0.05	-0.262970622418994	7.26785261213185
0.05	a judge	a pedophile	67	elaborate	1	8	1	burntHouse	simpleChoice	d	Left Item	6.99759598298193	N/A	-1	0.952471774193548	0.0183049591011055	0.0950564516129031	1	1	TRUE	0.904943548387097	1	0.05	-0.270256626714945	7.26785260969687
0.05	a teacher	a rapist	67	elaborate	1	63	1	medicalTreatment	simpleChoice	d	Left Item	6.90975328164481	N/A	-1	0.047214	0.0130778145434638	0.094428	1	1	TRUE	0.905572	1	0.05	-0.358099330487043	7.26785261213185
0.05	a pedophile	a mother	67	elaborate	1	86	1	medicalTreatment	simpleChoice	k	Right Item	7.00488198971286	N/A	-1	0.976674089068826	0.00967609627649961	0.0466518218623482	-1	1	FALSE	-0.953348178137652	1	0.05	-0.262970622418994	7.26785261213185
0.05	a pedophile	a mother	67	elaborate	1	67	1	serviceDog	simpleChoice	k	Right Item	6.72142570079064	N/A	-1	0.976674089068826	0.00967609627649961	0.0466518218623482	-1	1	FALSE	-0.953348178137652	1	0.05	-0.54642691134121	7.26785261213185
0.15	a celebrity	a pedophile	67	elaborate	1	27	1	physicalTherapy	simpleChoice	d	Left Item	7.24351297466548	N/A	-1	0.906931623931624	0.0253602619704029	0.186136752136752	1	1	TRUE	0.813863247863248	1	0.15	-0.0243396374663716	7.26785261213185
0.15	a terrorist	a nun	67	elaborate	1	59	1	burntHouse	simpleChoice	k	Right Item	7.81923445385907	N/A	-1	0.935004098360656	0.0209454852869902	0.129991803278688	-1	1	FALSE	-0.870008196721312	1	0.15	0.551381841727217	7.26785261213185
0.15	an olympian	a rapist	67	elaborate	1	60	1	surgery	simpleChoice	d	Left Item	7.39756153552405	N/A	-1	0.059896694214876	0.0206690042924156	0.119793388429752	1	1	TRUE	0.880206611570248	1	0.15	0.129708923392199	7.26785261213185
0.15	a terrorist	a judge	67	elaborate	1	73	1	paralysis	simpleChoice	k	Right Item	7.20934025660291	N/A	-1	0.938693277310924	0.02206874779007	0.122613445378151	-1	1	FALSE	-0.877386554621849	1	0.15	-0.0585123555289435	7.26785261213185
0.15	a rapist	an adult	67	elaborate	1	97	1	paralysis	simpleChoice	k	Right Item	6.93342302573071	N/A	-1	0.050872	0.019218974608053	0.101744	-1	1	FALSE	-0.898256	1	0.15	-0.334429586401138	7.26785261213185
0.15	a father	a thief	67	elaborate	1	84	1	paralysis	simpleChoice	d	Left Item	6.62671774924902	N/A	-1	0.927987704918033	0.0156861284015264	0.144024590163934	1	1	TRUE	0.855975409836066	1	0.15	-0.641134862882828	7.26785261213185
0.15	a rapist	a police officer	67	elaborate	1	34	1	medicalTreatment	simpleChoice	k	Right Item	7.38647084882989	N/A	-1	0.942292592592593	0.0200015786769275	0.115414814814815	-1	1	FALSE	-0.884585185185185	1	0.15	0.118618236698041	7.26785261213185
0.15	an assassin	a soldier	67	elaborate	1	53	1	counseling	simpleChoice	k	Right Item	7.03702761468628	N/A	-1	0.928784	0.0223752988359485	0.142432	-1	1	FALSE	-0.857568	1	0.15	-0.230824997445577	7.26785261213185
0.15	a soldier	a thief	67	elaborate	1	42	1	burntHouse	simpleChoice	d	Left Item	6.84054652928869	N/A	-1	0.914880165289256	0.0236213599854652	0.170239669421488	1	1	TRUE	0.829760330578512	1	0.15	-0.427306082843166	7.26785261213185
0.15	an olympian	a rapist	67	elaborate	1	35	1	hearingAids	simpleChoice	d	Left Item	7.27239839257005	N/A	-1	0.059896694214876	0.0206690042924156	0.119793388429752	1	1	TRUE	0.880206611570248	1	0.15	0.00454578043819343	7.26785261213185
0.25	a congressman	a rapist	67	elaborate	1	16	1	hearingAids	simpleChoice	d	Left Item	6.83625927727707	N/A	-1	0.87275	0.028727439533602	0.2545	1	1	TRUE	0.7455	1	0.25	-0.431593334854786	7.26785261213185
0.25	a thief	an elderly person	67	elaborate	1	75	1	paralysis	simpleChoice	k	Right Item	6.69208374250663	N/A	-1	0.103538461538462	0.0266643883761814	0.207076923076923	-1	1	FALSE	-0.792923076923077	1	0.25	-0.575768869625225	7.26785261213185
0.25	an adult	an assassin	67	elaborate	1	33	1	burntHouse	simpleChoice	d	Left Item	7.93056585423396	N/A	-1	0.898357723577236	0.0252564958790136	0.203284552845528	1	1	TRUE	0.796715447154472	1	0.25	0.662713242102112	7.26785261213185
0.25	a terrorist	a celebrity	67	elaborate	1	49	1	serviceDog	simpleChoice	k	Right Item	8.21959545417708	N/A	-1	0.886209821428571	0.0287845886559777	0.227580357142857	-1	1	FALSE	-0.772419642857143	1	0.25	0.951742842045227	7.26785261213185
0.25	a police officer	a thief	67	elaborate	1	11	1	medicalTreatment	simpleChoice	d	Left Item	7.72577144158795	N/A	-1	0.871906976744186	0.028240572548127	0.256186046511628	1	1	TRUE	0.743813953488372	1	0.25	0.457918829456733	7.26785261213122
0.25	a rapist	a celebrity	67	elaborate	1	17	1	bucketList	simpleChoice	k	Right Item	8.31556648356428	N/A	-1	0.891172268907563	0.0272355832867098	0.217655462184874	-1	1	FALSE	-0.782344537815126	1	0.25	1.04771387143242	7.26785261213185
0.25	a police officer	an assassin	67	elaborate	1	5	1	counseling	simpleChoice	d	Left Item	7.12608727329912	N/A	-1	0.893507518796993	0.026848284411785	0.212984962406015	1	1	TRUE	0.787015037593985	1	0.25	-0.141755990060272	7.2678432633594
0.25	an assassin	a police officer	67	elaborate	1	22	1	surgery	simpleChoice	k	Right Item	7.37337430991005	N/A	-1	0.893507518796993	0.026848284411785	0.212984962406015	-1	1	FALSE	-0.787015037593985	1	0.25	0.105521697778196	7.26785261213185
0.25	an astronaut	an assassin	67	elaborate	1	38	1	paralysis	simpleChoice	d	Left Item	7.1420365747068	N/A	-1	0.10252734375	0.0261639603978014	0.2050546875	1	1	TRUE	0.7949453125	1	0.25	-0.12581603742505	7.26785261213185
0.25	an astronaut	a gang member	67	elaborate	1	23	1	burntHouse	simpleChoice	d	Left Item	6.98841318199959	N/A	-1	0.146455284552846	0.0313347494824486	0.292910569105691	1	1	TRUE	0.707089430894309	1	0.25	-0.279439430132261	7.26785261213185
0.25	an adult	a gang member	67	elaborate	1	48	1	burntHouse	simpleChoice	d	Left Item	6.78558764500793	N/A	-1	0.145584745762712	0.0309232327063681	0.291169491525424	1	1	TRUE	0.708830508474576	1	0.25	-0.482264967123924	7.26785261213185
0.25	a gang member	a teacher	67	elaborate	1	61	1	physicalTherapy	simpleChoice	k	Right Item	7.08840877867539	N/A	-1	0.131493827160494	0.0213207382980793	0.262987654320988	-1	1	FALSE	-0.737012345679012	1	0.25	-0.179443833456459	7.26785261213185
0.25	an adult	a gang member	67	elaborate	1	57	1	surgery	simpleChoice	d	Left Item	7.04228617193974	N/A	-1	0.145584745762712	0.0309232327063681	0.291169491525424	1	1	TRUE	0.708830508474576	1	0.25	-0.22556644019211	7.26785261213185
0.25	a thief	an olympian	67	elaborate	1	6	1	medicalTreatment	simpleChoice	k	Right Item	8.00101996132365	N/A	-1	0.146745614035088	0.0319053408736065	0.293491228070175	-1	1	FALSE	-0.706508771929825	1	0.25	0.733167946229378	7.26785201509427
0.35	a convict	a police officer	67	elaborate	1	90	1	burntHouse	simpleChoice	k	Right Item	8.38274709486331	N/A	-1	0.188992753623188	0.0315803485877791	0.377985507246377	-1	1	FALSE	-0.622014492753623	1	0.35	1.11489448273146	7.26785261213185
0.35	a convict	an adult	67	elaborate	1	45	1	counseling	simpleChoice	k	Right Item	7.4759059693674	N/A	-1	0.18879296875	0.0333141922622296	0.3775859375	-1	1	FALSE	-0.6224140625	1	0.35	0.208053357235544	7.26785261213185
0.35	an addict	a terrorist	67	elaborate	1	85	1	burntHouse	simpleChoice	d	Left Item	6.8596149036542	N/A	-1	0.18692735042735	0.0341446724899859	0.373854700854701	1	1	TRUE	0.626145299145299	1	0.35	-0.408237708477651	7.26785261213185
0.35	a convict	a mentor	67	elaborate	1	82	1	counseling	simpleChoice	k	Right Item	7.22766249872865	N/A	-1	0.174175572519084	0.0317875935140294	0.348351145038168	-1	1	FALSE	-0.651648854961832	1	0.35	-0.0401901134031988	7.26785261213185
0.35	a rapist	an addict	67	elaborate	1	39	1	burntHouse	simpleChoice	k	Right Item	7.19218205871325	N/A	-1	0.170766129032258	0.0312929537594387	0.341532258064516	-1	1	FALSE	-0.658467741935484	1	0.35	-0.0756705534186075	7.26785261213185
0.35	a thief	a judge	67	elaborate	1	58	1	hearingAids	simpleChoice	k	Right Item	6.71052310945243	N/A	-1	0.8475125	0.0313983634725846	0.304975	-1	1	FALSE	-0.695025	1	0.35	-0.557329502679425	7.26785261213185
0.35	a teacher	a convict	67	elaborate	1	40	1	medicalTreatment	simpleChoice	d	Left Item	6.95939851213398	N/A	-1	0.170899209486166	0.0230602458782128	0.341798418972332	1	1	TRUE	0.658201581027668	1	0.35	-0.308454099997878	7.26785261213185
0.35	a convict	an astronaut	67	elaborate	1	9	1	surgery	simpleChoice	k	Right Item	7.5963923040642	N/A	-1	0.193007518796992	0.0335872791813001	0.386015037593985	-1	1	FALSE	-0.613984962406015	1	0.35	0.328539692087847	7.26785261197635
0.35	a soldier	an addict	67	elaborate	1	50	1	paralysis	simpleChoice	d	Left Item	7.58933582317062	N/A	-1	0.824042372881356	0.034794496815326	0.351915254237288	1	1	TRUE	0.648084745762712	1	0.35	0.321483211038764	7.26785261213185
0.45	a mother	a nun	67	elaborate	1	71	1	physicalTherapy	simpleChoice	d	Left Item	6.81563999007433	N/A	-1	0.77189837398374	0.0265727332440291	0.45620325203252	1	1	TRUE	0.54379674796748	1	0.45	-0.452212622057522	7.26785261213185
0.45	an addict	a mentor	67	elaborate	1	72	1	hearingAids	simpleChoice	k	Right Item	7.3304052118444	N/A	-1	0.770483333333333	0.0366520620351599	0.459033333333333	-1	1	FALSE	-0.540966666666667	1	0.45	0.0625525997125491	7.26785261213185
0.45	a mother	a celebrity	67	elaborate	1	65	1	medicalTreatment	simpleChoice	d	Left Item	6.68085467879022	N/A	-1	0.21578813559322	0.0262432815106397	0.431576271186441	1	1	TRUE	0.568423728813559	1	0.45	-0.586997933341638	7.26785261213185
0.45	an addict	a police officer	67	elaborate	1	62	1	medicalTreatment	simpleChoice	k	Right Item	6.99393297522319	N/A	-1	0.758376984126984	0.0376655604080243	0.483246031746032	-1	1	FALSE	-0.516753968253968	1	0.45	-0.273919636908664	7.26785261213185
0.45	an addict	an adult	67	elaborate	1	29	1	bucketList	simpleChoice	k	Right Item	7.83557924666997	N/A	-1	0.24951724137931	0.0390802732240978	0.499034482758621	-1	1	FALSE	-0.500965517241379	1	0.45	0.567726634538112	7.26785261213185
0.45	a thief	a congressman	67	elaborate	1	18	1	physicalTherapy	simpleChoice	k	Right Item	7.50108212425987	N/A	-1	0.75309009009009	0.039822867265874	0.49381981981982	-1	1	FALSE	-0.50618018018018	1	0.45	0.233229512128018	7.26785261213185
0.45	a gang member	a celebrity	67	elaborate	1	3	1	legalFees	simpleChoice	k	Right Item	8.1164170727942	N/A	-1	0.763004464285714	0.037926361449386	0.473991071428571	-1	1	FALSE	-0.526008928571429	1	0.45	0.850856702483445	7.26556037031076
0.45	a thief	a congressman	67	elaborate	1	10	1	serviceDog	simpleChoice	k	Right Item	7.82003798945875	N/A	-1	0.75309009009009	0.039822867265874	0.49381981981982	-1	1	FALSE	-0.50618018018018	1	0.45	0.552185377336831	7.26785261212192
0.45	an olympian	a convict	67	elaborate	1	36	1	burntHouse	simpleChoice	d	Left Item	6.86797440897029	N/A	-1	0.210772357723577	0.0380499780740398	0.421544715447155	1	1	TRUE	0.578455284552845	1	0.45	-0.399878203161561	7.26785261213185
0.45	a nun	a convict	67	elaborate	1	30	1	paralysis	simpleChoice	d	Left Item	7.05358572719368	N/A	-1	0.227174242424242	0.0346919254151378	0.454348484848485	1	1	TRUE	0.545651515151515	1	0.45	-0.214266884938176	7.26785261213185
0.45	an addict	a teacher	67	elaborate	1	32	1	counseling	simpleChoice	d	Left Item	7.76089319585102	N/A	-1	0.774126556016598	0.0268976374572695	0.451746887966805	-1	0	FALSE	-0.548253112033195	0	0.45	0.49304058371917	7.26785261213185
0.55	a congressman	a gang member	67	elaborate	1	81	1	paralysis	simpleChoice	d	Left Item	7.37274636640433	N/A	-1	0.725797297297297	0.0420374210959715	0.548405405405405	1	1	TRUE	0.451594594594595	1	0.55	0.104893754272475	7.26785261213185
0.55	an astronaut	a mother	67	elaborate	1	14	1	physicalTherapy	simpleChoice	k	Right Item	7.19818357710194	N/A	-1	0.744135627530364	0.0278082032095273	0.511728744939271	-1	1	FALSE	-0.488271255060729	1	0.55	-0.0696690350299098	7.26785261213185
0.55	a thief	a pedophile	67	elaborate	1	31	1	serviceDog	simpleChoice	d	Left Item	7.58171964012531	N/A	-1	0.297322580645161	0.0352578857665523	0.594645161290323	1	1	TRUE	0.405354838709677	1	0.55	0.313867027993455	7.26785261213185
0.55	a judge	a father	67	elaborate	1	25	1	paralysis	simpleChoice	k	Right Item	7.66902828858968	N/A	-1	0.730229508196721	0.0278426761038502	0.539540983606557	-1	1	FALSE	-0.460459016393443	1	0.55	0.40117567645783	7.26785261213185
0.55	a father	a nun	67	elaborate	1	1	1	physicalTherapy	simpleChoice	d	Left Item	6.7093043402583	N/A	-1	0.740512145748988	0.0267878210493304	0.518975708502024	1	1	TRUE	0.481024291497976	1	0.55	0.00349049746526564	6.70581384279303
0.55	an assassin	an addict	67	elaborate	1	19	1	serviceDog	simpleChoice	k	Right Item	6.85118492749374	N/A	-1	0.724172131147541	0.0379270976289314	0.551655737704918	-1	1	FALSE	-0.448344262295082	1	0.55	-0.41666768463811	7.26785261213185
0.65	a father	a teacher	67	elaborate	1	15	1	paralysis	simpleChoice	d	Left Item	7.20340552108309	N/A	-1	0.658853260869565	0.0236128238843631	0.68229347826087	1	1	TRUE	0.31770652173913	1	0.65	-0.0644470910487582	7.26785261213185
0.65	an addict	a gang member	67	elaborate	1	68	1	bucketList	simpleChoice	d	Left Item	6.880384082186	N/A	-1	0.347794871794872	0.042213942603222	0.695589743589744	1	1	TRUE	0.304410256410256	1	0.65	-0.387468529945848	7.26785261213185
0.65	a nun	an elderly person	67	elaborate	1	4	1	surgery	simpleChoice	k	Right Item	7.30854279753919	N/A	-1	0.347395833333333	0.0422852758649112	0.694791666666667	-1	1	FALSE	-0.305208333333333	1	0.65	0.0408365740926957	7.26770622344649
